ax,ay,az,gx,gy,gz,activity
8.8600,-2.0249,-2.6009,3.7841,6.1645,0.4272,1
8.9312,-2.6183,-2.6787,-2.6855,3.4789,2.3193,1
8.8630,-2.9784,-2.6841,-7.1410,0.8544,3.2348,1
8.7475,-3.0765,-2.9551,-8.3617,-1.9531,3.2348,1
8.7936,-3.1226,-3.1986,-7.5073,-3.2348,3.1127,1
8.8163,-3.2781,-3.4313,-4.5165,-1.8310,1.9531,1
8.5800,-3.4689,-3.6909,-3.1127,-2.0751,1.6479,1
8.3766,-3.5072,-3.7286,0.8544,0.0610,-1.1596,1
8.2331,-3.4689,-3.5820,3.7231,0.6713,-2.6245,1
8.2839,-3.2081,-3.6077,6.1645,0.6713,-2.8076,1
8.4783,-2.9539,-3.5802,6.1034,-1.9531,-3.2958,1
8.5633,-2.7391,-3.5635,3.4789,2.3193,-2.5634,1
8.6877,-2.8486,-3.3152,2.5634,1.5869,-1.5258,1
8.7451,-2.8079,-3.2135,1.3427,1.4038,0.6103,1
8.6997,-2.5579,-3.0592,-1.2817,0.9155,2.6245,1
8.6039,-2.4717,-2.9712,-6.6528,-1.8920,4.6996,1
8.5956,-2.6392,-2.7924,-11.5966,-3.1738,3.2958,1
8.6757,-2.8600,-2.7445,-13.7328,-3.6621,2.5024,1
8.6333,-2.8516,-2.6739,-15.6249,-3.9672,2.3193,1
8.5495,-2.8671,-2.5369,-16.7846,-5.6762,2.1972,1
8.7176,-2.9126,-2.6428,-17.3949,-5.9203,0.2441,1
8.8558,-3.1423,-2.6470,-15.6249,-3.4179,-4.0893,1
8.8085,-3.2045,-2.7194,-14.3432,-2.6855,-5.9203,1
8.9880,-3.2614,-2.8271,-13.4277,-5.0659,-4.8828,1
9.0723,-3.4815,-3.2596,-10.1318,-6.1645,-4.6996,1
9.6364,-4.1880,-4.2400,2.3803,-9.6435,0.1831,1
8.9964,-4.0941,-3.7525,14.0380,-7.0800,3.9672,1
8.1278,-2.9377,-2.7960,14.8925,-10.5590,7.2021,1
7.8753,-2.6775,-2.5196,11.2914,-18.4325,8.2397,1
8.4753,-2.4963,-2.7565,7.9955,-16.9066,9.5214,1
8.6608,-3.0484,-3.4983,0.2441,-16.1742,4.5165,1
8.4879,-3.1220,-3.7286,-4.0893,-19.3480,0.1831,1
8.0656,-2.9078,-4.1527,-2.0141,-21.9115,-1.5869,1
8.0333,-3.1501,-4.5110,2.1362,-37.4754,-2.6245,1
8.2678,-3.5108,-4.6713,6.3476,-39.3675,-4.1503,1
8.1571,-3.6011,-5.0650,8.6059,-22.8270,-10.0097,1
8.2217,-3.2775,-5.0967,7.3242,-5.2490,-15.3197,1
7.9962,-2.6338,-4.8759,7.7514,4.5776,-15.0756,1
8.0117,-2.5256,-4.7144,9.2162,6.7748,-10.3149,1
8.1068,-2.5004,-4.4093,12.4511,3.4179,-6.4697,1
7.8442,-2.6464,-4.4380,13.7328,-5.7983,-2.2582,1
7.6887,-2.6626,-4.5661,10.1318,-16.1742,2.8076,1
7.5505,-2.6327,-4.9842,6.1645,-19.4091,6.7138,1
7.6851,-2.5375,-4.7892,-1.0986,-6.7138,8.9721,1
7.8580,-2.6536,-4.6468,-3.6621,-1.3427,8.3007,1
7.9878,-2.4400,-4.7222,-8.7890,4.5776,7.6293,1
8.2139,-2.4753,-4.2711,-8.6059,7.8124,9.3383,1
8.8486,-2.6338,-3.8967,-5.0048,7.0190,7.6293,1
9.0819,-2.5387,-3.8985,2.8686,0.9155,6.3476,1
9.3272,-2.4574,-3.4749,3.5400,-6.7748,3.6010,1
9.1573,-2.2211,-3.7375,8.6059,-9.6435,-4.8217,1
9.3284,-2.3288,-4.1413,9.7656,-3.6621,-9.9487,1
8.8253,-2.4089,-3.9684,10.0707,1.4038,-12.1459,1
8.5328,-2.4418,-3.8219,14.4652,2.9296,-13.3666,1
8.2803,-2.4364,-3.9230,18.8598,3.6010,-12.2680,1
8.0751,-2.5836,-4.4004,26.0619,9.6435,-6.7748,1
8.0590,-3.1794,-4.9286,25.6347,11.2914,0.3051,1
9.3649,-4.1826,-4.9830,20.6908,16.2963,-2.6245,1
9.1794,-3.8009,-4.5954,1.5869,1.7700,-28.5033,1
6.7459,-2.5393,-4.7401,0.4272,-9.3383,-13.2445,1
6.4815,-3.0981,-4.2556,12.6952,-10.4369,0.9765,1
7.2382,-4.2143,-4.4925,31.3109,-16.2963,2.3803,1
8.2672,-4.2472,-4.7551,39.2455,-10.0707,-8.7890,1
8.0949,-3.0693,-4.2783,42.9076,6.0424,-22.6439,1
8.0004,-2.5256,-3.7106,42.6634,6.3476,-15.0146,1
8.2767,-2.7326,-3.8799,38.0248,-3.0517,-9.2162,1
8.7140,-3.1854,-4.2705,27.0385,-6.5917,-6.7138,1
8.6470,-3.4157,-4.2424,20.7518,-6.5307,-7.6293,1
7.8442,-3.4618,-3.6364,16.4794,-7.3242,-6.4697,1
7.6845,-3.5072,-3.5072,19.4091,-11.6576,-1.4038,1
7.8646,-3.9284,-3.7788,24.1698,-13.9770,0.1220,1
7.8831,-4.1180,-3.8973,31.3109,-12.7563,-3.1738,1
7.8173,-4.1365,-4.0869,34.9120,-12.4511,-7.5683,1
7.8783,-4.0725,-3.9505,44.2503,-14.0380,-10.9862,1
8.2456,-4.0528,-4.1001,52.6732,-16.9066,-10.0707,1
8.3036,-3.7202,-4.0259,55.0535,-16.4184,-13.3056,1
8.2157,-3.5192,-3.9535,53.2225,-20.3246,-14.7094,1
8.2456,-3.2338,-4.0013,50.7811,-21.3622,-14.4652,1
8.3688,-3.3176,-3.9708,46.4476,-18.3715,-14.2211,1
8.3760,-3.2488,-3.7938,43.3958,-13.4887,-13.5497,1
8.3659,-3.0789,-3.8021,40.8324,-13.4887,-12.0238,1
8.4370,-2.8785,-3.8967,35.5834,-12.9394,-9.3383,1
8.4747,-2.9174,-3.8494,30.7006,-10.5590,-8.2397,1
8.4472,-2.8079,-3.7585,22.4608,-4.8828,-5.3710,1
8.6267,-2.8067,-3.5838,13.6718,-2.5024,-1.8310,1
8.5597,-2.6973,-3.6586,8.4228,-2.2582,0.2441,1
8.4532,-2.9647,-3.7112,2.9296,-1.5869,3.4179,1
8.3485,-3.3056,-3.6801,0.3051,-1.2207,5.4321,1
8.3850,-3.4929,-3.9601,-3.9062,-2.1972,6.7748,1
8.4305,-3.7022,-3.9547,-9.0331,1.0986,5.2490,1
8.2749,-3.5772,-3.8536,-11.8407,2.2582,3.8452,1
8.1714,-3.5706,-3.8333,-13.8549,2.7465,3.7841,1
8.1948,-3.4935,-3.9672,-14.1601,3.4789,4.3334,1
8.1272,-3.6215,-4.0791,-13.9770,4.7607,3.7841,1
8.0219,-3.6675,-4.0426,-13.1835,6.4697,2.2582,1
7.9226,-3.8261,-3.9996,-12.6342,5.8593,1.4038,1
8.0189,-3.9397,-4.0779,-9.0942,6.9579,0.2441,1
8.1750,-3.7351,-4.1688,-6.4697,10.0097,0.9155,1
8.1720,-3.6376,-4.0552,-4.9438,13.2445,-2.2582,1
8.2307,-3.5359,-4.0576,-4.0893,12.4511,-3.6621,1
8.5244,-3.5336,-3.8733,-4.4555,12.2069,-4.3334,1
8.4927,-3.5916,-3.8644,-3.1127,11.9628,-8.7890,1
8.3868,-3.5569,-3.8344,0.9155,9.8266,-10.3759,1
8.3766,-3.6999,-3.8590,3.7841,7.1410,-11.4135,1
8.3443,-3.5042,-3.8404,6.5917,10.1928,-14.0990,1
8.1116,-2.8534,-3.6023,9.8266,11.5966,-14.1601,1
8.4245,-3.1597,-3.7698,11.5356,12.6952,-13.1835,1
8.2504,-3.2530,-3.3672,17.8832,15.0756,-11.2914,1
8.3013,-3.1423,-3.1800,20.9350,12.7563,-9.5824,1
8.4574,-2.9551,-3.1734,23.3764,7.6904,-4.3334,1
8.6769,-2.9605,-3.3702,22.2167,5.5541,-2.0751,1
8.6668,-3.1603,-3.6580,15.7470,2.6855,-1.6479,1
8.5591,-3.4552,-3.7232,11.1083,0.5493,-1.4648,1
8.3994,-3.4815,-3.7645,10.4369,1.0986,-1.6479,1
8.3491,-3.3834,-3.8129,10.1318,1.7700,-2.6245,1
8.1409,-3.1513,-3.6741,9.7045,3.6621,-1.8310,1
8.2031,-3.0927,-3.6741,9.5214,3.7841,2.5634,1
8.1439,-3.0478,-4.0630,4.3945,5.1269,7.6904,1
8.7278,-3.7226,-3.8315,0.8544,6.7748,10.5590,1
8.5555,-4.0761,-3.9278,-10.9252,-6.0424,6.1645,1
7.8574,-4.3698,-3.8225,-14.6484,-7.8735,6.6528,1
7.6851,-4.1599,-4.1958,-17.7611,-15.6249,2.5634,1
7.5032,-3.9308,-4.2640,-17.3949,-14.8925,1.7089,1
7.6253,-3.7154,-4.1330,-14.8315,-7.0190,0.3662,1
7.5684,-4.0821,-3.8093,-4.8828,-7.8735,-7.1410,1
7.9411,-4.6444,-2.9904,0.6103,-5.4931,-10.6811,1
8.3671,-4.6881,-2.7302,9.9487,-10.9862,-14.7704,1
8.5615,-3.8267,-2.8480,16.2963,-13.7939,-11.1694,1
8.9282,-2.7014,-2.9551,14.7094,-11.5356,-7.4462,1
9.2350,-3.0137,-3.1393,12.7563,-12.3901,-9.2773,1
9.5162,-3.9948,-2.6656,16.2963,-6.8969,-8.7890,1
9.0035,-3.7334,-2.2157,19.8363,-1.2817,-9.2773,1
8.6398,-2.8043,-2.3790,25.1464,-6.2255,-7.6904,1
9.0245,-2.6051,-2.2899,27.9540,-15.0756,-4.0893,1
9.0861,-2.9330,-2.4293,26.9774,-15.3197,-3.6621,1
8.8767,-3.2213,-2.3066,28.4423,-13.6108,-5.4931,1
8.7930,-2.8504,-2.4281,28.2592,-9.7045,-8.1176,1
8.8468,-2.5890,-2.5094,24.4750,-9.8266,-9.0331,1
8.8863,-2.6015,-2.2055,23.4984,-4.3334,-11.4135,1
8.7403,-2.5465,-2.2013,17.8222,-13.8549,-13.3666,1
8.9593,-2.8642,-2.3748,15.4418,-4.6386,-15.8690,1
9.3260,-3.2279,-2.6925,13.2445,-4.9438,-15.5028,1
9.0382,-3.4833,-3.0059,16.9066,-7.8124,-12.3901,1
9.0257,-3.6352,-3.6023,20.0194,-6.6528,-10.1318,1
8.6793,-3.7974,-3.5222,23.0101,-6.2866,-8.7890,1
8.7774,-3.2602,-3.3014,23.6205,-1.4038,-6.3476,1
8.4478,-2.6769,-3.2871,17.2118,2.6855,-5.9203,1
8.6955,-2.5986,-3.1226,7.6293,6.7138,-3.4789,1
9.1938,-2.4957,-2.8289,0.0000,10.7421,-3.2348,1
9.0293,-2.3802,-2.7541,-11.2304,13.9159,-3.8452,1
8.8528,-2.3192,-2.6650,-17.6391,6.6528,2.9296,1
8.4699,-2.3856,-2.9162,-21.1791,1.5258,7.9345,1
8.4915,-2.7236,-3.1992,-24.5360,0.8544,12.0849,1
8.7278,-3.2973,-3.0783,-24.4750,0.9155,11.0473,1
8.4676,-3.4474,-3.0538,-22.0946,3.2348,7.8735,1
8.2899,-3.2769,-3.1334,-20.2025,5.9814,7.9345,1
9.0012,-3.0005,-3.2147,-19.3480,12.0849,6.0424,1
8.9545,-2.7768,-3.0245,-24.7802,21.3012,3.8452,1
9.0215,-2.4281,-2.9617,-31.3109,20.6298,6.7748,1
9.0747,-2.7511,-2.7990,-38.5130,22.0336,15.1366,1
8.9952,-2.8791,-2.6147,-40.2831,19.1649,21.7894,1
8.7792,-3.2338,-2.3994,-39.2455,14.3432,24.2919,1
8.6703,-3.2943,-2.3413,-38.1468,9.5214,26.7333,1
8.8917,-3.0436,-2.3515,-39.1844,5.0048,29.4188,1
8.8899,-2.8683,-2.5142,-42.9076,5.6762,31.4940,1
8.7050,-2.9682,-2.4311,-46.7528,6.1645,29.1747,1
8.0362,-3.3188,-2.1583,-47.0579,3.2348,26.7333,1
8.2492,-3.5276,-2.0985,-46.1424,0.7934,22.1557,1
8.6739,-3.7639,-2.6452,-43.3958,1.4038,18.6156,1
9.2398,-3.5533,-2.8223,-38.6961,8.2397,13.7328,1
9.6161,-3.0723,-3.1764,-36.6820,13.4277,14.6484,1
10.1347,-3.5497,-3.7387,-31.6771,17.0897,16.9677,1
9.5718,-3.7064,-3.6646,-27.1605,26.3671,23.3153,1
8.3174,-3.7244,-2.8295,-32.3485,18.1273,23.6815,1
8.1056,-3.3218,-3.0753,-39.4896,14.2821,26.1840,1
7.8083,-3.4444,-3.4672,-45.1048,3.6010,22.3998,1
8.1876,-3.6119,-4.2640,-48.1566,0.4882,21.2401,1
8.0919,-3.7686,-4.3292,-47.3631,3.7231,16.6625,1
7.6211,-4.0905,-4.5409,-45.1048,1.6479,14.6484,1
7.3178,-4.3698,-4.3968,-37.7196,-1.6479,13.0004,1
7.6833,-4.2239,-4.4500,-32.1044,0.5493,6.1645,1
7.8239,-3.9463,-4.4733,-30.9447,5.4931,0.9765,1
7.7120,-3.6879,-4.3806,-30.6395,7.5683,-5.6152,1
7.7258,-3.2673,-4.5595,-30.7006,8.5448,-5.0659,1
7.2514,-3.0340,-4.7581,-33.3251,4.5776,0.7934,1
7.2053,-3.0137,-4.8460,-35.9496,1.8310,5.3100,1
7.3848,-3.3266,-4.4267,-34.9730,0.2441,9.8266,1
7.6893,-3.3852,-4.2885,-30.2123,6.0424,12.3901,1
8.1457,-3.5090,-4.0540,-25.4515,10.1928,11.2304,1
8.9192,-3.7351,-4.2406,-16.7846,9.3383,6.5307,1
9.1286,-3.6335,-4.1682,-6.7748,6.8359,2.0751,1
8.8773,-3.3493,-4.1288,-4.3945,4.7607,-1.5258,1
8.5351,-3.2823,-3.9996,-3.6621,3.4179,-7.9955,1
8.0350,-3.2482,-3.7776,-1.6479,1.0986,-9.3993,1
7.8382,-3.3397,-3.9308,5.1879,-5.6762,-11.1694,1
8.1254,-3.1184,-4.1341,10.3759,-9.1552,-12.0238,1
7.9698,-2.6123,-4.1216,12.5121,-6.8359,-11.7797,1
8.0039,-2.4424,-4.0414,13.4277,-7.8124,-6.5917,1
8.2061,-2.3533,-4.3399,9.0942,-7.0190,-4.0893,1
8.6231,-2.4197,-4.6079,3.4789,-7.1410,-2.3803,1
8.5375,-2.3862,-4.9447,-1.0375,0.9155,-3.2348,1
8.4161,-2.8037,-4.9740,-1.0986,-1.7089,-2.1362,1
8.3007,-3.3056,-4.7132,4.3945,1.1596,-2.0751,1
7.8466,-3.5294,-4.5894,10.6200,4.8217,-3.6621,1
7.8693,-3.2267,-4.5894,12.4511,3.2348,-2.2582,1
8.2450,-3.0382,-4.5702,13.0004,3.2958,-4.2724,1
8.1583,-2.8432,-4.0390,10.0707,1.3427,-16.7235,1
7.2705,-2.1948,-4.2083,8.1176,-6.2255,-9.5214,1
8.4544,-2.6362,-4.2789,8.0566,-3.2958,1.1596,1
8.6985,-3.0137,-4.0420,6.4086,1.1596,-4.3334,1
7.9848,-2.8540,-3.7028,1.5258,1.2207,-3.2958,1
8.3802,-2.3120,-3.7938,-1.8310,0.3051,2.7465,1
8.7702,-2.3060,-3.9188,-12.2680,2.9296,7.6293,1
9.0203,-2.5501,-4.0917,-19.3480,10.5590,12.0849,1
8.6859,-2.8677,-3.6598,-23.4984,16.2963,12.5732,1
8.4101,-2.9940,-3.7166,-24.1698,5.4321,16.7846,1
8.2181,-3.6352,-4.0612,-23.6815,3.9672,17.8222,1
8.0913,-4.0019,-4.3154,-17.4560,3.9062,13.7939,1
7.7754,-4.0348,-4.3130,-9.4604,4.4555,7.6293,1
7.5750,-4.1527,-4.6325,-3.6621,-2.3193,4.2114,1
7.8610,-4.0983,-4.9818,6.4086,-3.1127,0.2441,1
7.8496,-3.4773,-4.7718,9.2773,-5.8593,-2.1972,1
8.1960,-2.5555,-4.3764,7.6293,-4.3334,-2.1362,1
8.4191,-1.9597,-4.1318,0.4882,2.1362,1.5869,1
8.7888,-2.0111,-3.7322,-10.7421,1.9531,6.2866,1
8.9730,-2.0404,-3.6813,-23.8036,3.3569,7.9345,1
8.5962,-2.1708,-3.8027,-30.6395,-1.3427,11.2914,1
8.1248,-3.0041,-4.1084,-36.1327,-8.7280,17.8832,1
7.7754,-3.5150,-4.3298,-34.4847,-2.0751,19.1039,1
7.9292,-3.9200,-4.2891,-29.7240,4.5776,17.3949,1
8.0506,-3.8997,-4.4123,-21.5453,11.2914,13.7939,1
8.0303,-3.4037,-4.3704,-18.6767,13.9770,12.0238,1
8.0309,-3.3577,-4.6546,-18.1273,15.6859,9.6435,1
7.9351,-3.4085,-4.2687,-19.4701,9.7045,7.9955,1
8.0171,-3.4576,-4.3226,-17.4560,-4.6996,8.7890,1
7.9842,-3.3373,-4.2987,-17.7611,-8.1176,7.2021,1
7.9932,-3.3942,-4.5595,-17.7611,-10.0097,5.2490,1
7.9334,-3.5730,-4.4937,-15.7470,-13.0614,2.6245,1
7.9005,-3.5240,-4.3052,-10.0707,-11.9628,0.7324,1
8.1481,-3.2859,-4.0845,-4.7607,-13.3056,0.7324,1
8.2462,-3.1310,-4.0187,3.1127,-7.6293,0.5493,1
8.7451,-3.0430,-4.2945,5.0659,-5.6762,0.2441,1
8.6620,-2.9790,-4.0582,4.8217,3.4789,-3.0517,1
8.4801,-2.9904,-3.8656,5.4931,5.4931,-3.1738,1
8.4275,-2.9958,-4.0289,6.0424,6.6528,-1.9531,1
8.2013,-2.8600,-4.0414,6.3476,10.0097,0.3051,1
8.1619,-2.9138,-4.0636,5.3710,11.1083,2.5634,1
8.0333,-2.7337,-4.3178,3.1738,12.5121,2.4414,1
8.1242,-2.7738,-4.4931,-2.9907,11.4745,4.2114,1
8.2331,-2.8666,-4.6450,-5.5541,12.7563,5.4321,1
8.0093,-3.0287,-4.4985,-9.8876,10.7421,8.2397,1
7.8622,-3.2829,-4.6384,-10.8031,12.0238,9.8876,1
7.7952,-3.3320,-4.2538,-10.1928,11.4745,9.8266,1
7.7174,-3.0376,-4.3704,-6.8359,11.2304,11.2914,1
8.3036,-3.3278,-4.9597,-5.4321,11.4135,13.2445,1
8.0727,-3.5766,-5.0835,-9.4604,13.4887,14.7704,1
8.1122,-3.9547,-4.6271,-14.2821,9.6435,10.6811,1
7.7659,-4.0701,-4.5014,-15.5028,2.8686,2.3803,1
7.6348,-4.0558,-4.4075,-9.1552,-1.2207,0.9155,1
7.7240,-3.7435,-4.5326,-3.2348,-4.0283,-1.1596,1
8.0004,-3.3744,-4.4105,1.9531,-5.6762,-1.3427,1
8.0093,-3.0981,-4.2352,4.0893,-4.5165,-3.6621,1
7.8681,-2.8235,-4.2508,4.3334,-4.6386,-2.9907,1
7.8119,-2.8402,-4.2299,5.1879,-5.0048,1.0375,1
7.7234,-3.2344,-4.3465,5.3100,-11.2914,2.8076,1
7.8801,-3.7722,-4.5290,8.2397,-11.7187,1.9531,1
7.7132,-3.9481,-4.2502,8.3617,-9.2162,-1.6479,1
7.4033,-3.8099,-3.8542,8.4228,-10.9252,-4.2724,1
7.3244,-3.5718,-3.5539,12.3290,-11.9018,-2.8686,1
7.6414,-3.1633,-3.2374,16.2353,-12.6342,-2.6245,1
9.2297,-2.9611,-2.9018,16.1132,-10.3759,-10.3759,1
10.1455,-3.0358,-2.9048,17.3339,-4.4555,-13.9770,1
10.0737,-3.3810,-3.1483,19.7753,0.9155,-14.8925,1
10.0337,-3.5288,-2.9066,20.2025,3.7841,-8.7890,1
9.9194,-3.5054,-2.7726,19.3480,-18.7987,0.2441,1
9.4157,-3.4019,-2.6919,26.3671,-3.7841,7.9955,1
8.7720,-3.7866,-2.4909,25.4515,-13.9770,12.5121,1
7.9417,-3.4289,-1.9130,23.9867,-5.4931,12.4511,1
8.0404,-3.1579,-2.2642,16.6015,-12.1459,7.6293,1
8.4556,-2.7092,-2.3940,9.7656,-6.5307,4.2114,1
8.6105,-3.0000,-3.1190,-1.3427,0.7934,0.7934,1
9.1615,-3.3631,-3.2267,-8.2397,5.2490,-3.9672,1
9.3116,-4.3250,-4.3752,-2.9296,1.8310,0.9765,1
8.1373,-5.0201,-4.1844,3.5400,3.1738,8.4838,1
8.1086,-4.0929,-3.6628,0.4882,-2.5634,9.0942,1
8.5064,-3.3110,-4.5332,-7.5683,-3.7841,0.4272,1
7.9477,-3.4791,-4.8502,-19.9584,-15.8080,0.0000,1
7.3591,-4.1611,-4.5463,-19.0429,-8.7280,2.8076,1
6.8877,-4.1174,-4.3764,-13.9159,-8.6669,0.7934,1
6.7657,-3.7351,-4.9465,-10.2538,-13.1835,-1.0986,1
7.0947,-3.6586,-5.0117,-9.7656,-11.3525,-1.6479,1
7.1790,-3.6813,-5.1744,-10.1928,-4.0283,-1.5869,1
7.0809,-3.9936,-5.0039,-10.6200,3.6010,-3.9672,1
7.1001,-3.9092,-4.8448,-10.9862,6.5307,-3.2958,1
7.1808,-3.6831,-4.7952,-11.8407,4.0283,3.2958,1
7.3519,-3.6436,-4.3232,-12.6952,-3.2348,9.0331,1
7.2406,-4.1515,-4.2269,-11.8407,-21.5453,7.2631,1
7.8729,-4.6606,-4.8969,-7.6293,-29.9071,3.2958,1
8.5788,-4.1371,-5.4699,7.6904,-17.0287,0.5493,1
8.2432,-3.7968,-5.2462,15.5639,-5.4321,-10.5590,1
7.2933,-3.1310,-4.7072,16.2963,0.0610,-16.1132,1
7.2155,-3.1196,-4.8131,19.1649,0.9155,-15.3808,1
8.1032,-3.3583,-5.1457,23.3764,-2.1972,-15.1366,1
8.4628,-3.3607,-5.2378,28.8085,-3.4179,-19.1039,1
7.8305,-2.8875,-5.0027,23.5595,-6.9579,-19.8363,1
7.5086,-2.6398,-4.7018,19.2870,-7.2021,-17.0287,1
7.5517,-3.0693,-4.6731,17.4560,-3.0517,-11.9628,1
7.9770,-3.4289,-4.6701,19.3480,0.1220,-8.9721,1
7.9926,-3.2931,-4.7216,19.6532,1.7089,-6.0424,1
7.9178,-3.0538,-4.4715,16.1742,2.9907,-2.1362,1
7.8801,-3.0203,-4.5044,11.5356,3.7841,0.9155,1
7.9854,-3.1381,-4.4327,5.8593,8.6669,3.6010,1
7.6390,-3.5521,-4.5427,3.6621,11.6576,5.5541,1
7.8789,-4.1515,-4.8687,0.0000,17.3339,9.8266,1
8.4412,-4.7497,-4.5427,-5.7983,14.5263,0.1831,1
7.0947,-4.6510,-4.3531,-10.3759,6.1034,-15.9911,1
6.5653,-4.3495,-4.4877,-6.8359,0.2441,-6.7748,1
7.3465,-4.4177,-4.6809,0.5493,2.0141,-5.1269,1
7.6337,-4.0480,-4.5798,5.8593,2.2582,-10.3149,1
7.4177,-3.7585,-4.4243,8.4228,0.9765,-10.0707,1
7.8119,-3.4420,-4.5996,9.2162,-4.1503,-6.8969,1
7.9375,-3.4283,-4.5960,4.8217,-5.9203,-4.6386,1
8.0650,-3.6532,-4.5762,0.2441,-5.3710,-4.3945,1
7.9477,-3.7082,-4.3519,-3.2958,-1.1596,-4.5165,1
7.7497,-3.3762,-4.1617,-1.2207,0.6103,-2.8076,1
8.0476,-3.0269,-4.1671,0.3051,-1.7700,0.7934,1
8.3437,-3.1028,-4.2532,2.3803,-3.2348,0.7324,1
8.1631,-3.3086,-4.2053,2.8076,0.9765,0.2441,1
8.1326,-3.2476,-4.2179,1.4038,-1.1596,-1.4648,1
8.1996,-3.2931,-4.2616,1.4038,0.0610,0.9155,1
8.1912,-3.2697,-4.2406,2.0751,0.8544,0.8544,1
8.1613,-3.2153,-4.2257,2.3803,-2.5024,-1.2817,1
8.1655,-3.0472,-4.2257,2.9907,-3.9062,0.3662,1
8.1050,-3.0167,-4.4213,3.2348,-5.0659,0.1831,1
8.0255,-3.0346,-4.5278,4.3334,-7.4462,2.5024,1
8.0345,-3.0125,-4.5720,4.9438,-6.7748,3.1127,1
7.9962,-3.0155,-4.8855,5.3100,-6.7748,1.8920,1
8.0057,-3.0849,-4.9112,7.8124,-3.4179,0.6103,1
8.1332,-3.0358,-4.8885,8.8500,0.6713,0.1220,1
8.1942,-2.9437,-4.6767,6.8969,0.6713,0.2441,1
8.1708,-2.9336,-4.6875,7.0800,0.3662,-1.8310,1
8.1379,-2.9383,-4.5852,7.9345,0.8544,-2.1972,1
8.1134,-2.9192,-4.5774,8.1786,0.1831,-1.1596,1
8.2295,-2.9748,-4.5906,8.6669,1.4038,0.1220,1
8.1361,-3.0424,-4.5355,7.2021,2.5634,0.5493,1
7.9543,-3.1722,-4.4685,6.6528,2.8686,1.5258,1
7.9932,-3.3224,-4.5499,7.2631,5.8593,3.4789,1
8.0662,-3.4331,-4.5014,6.5917,7.9955,3.7841,1
8.0931,-3.5575,-4.5134,5.2490,7.8124,3.1738,1
8.0775,-3.5138,-4.5218,3.3569,6.7138,2.5634,1
8.0823,-3.4289,-4.5804,2.9907,7.0800,2.3193,1
7.7724,-3.4002,-4.4231,2.5634,7.8735,1.9531,1
7.6689,-3.6095,-4.3663,4.2114,8.6669,0.1831,1
7.7563,-3.9451,-4.2717,6.0424,11.8407,-2.6855,1
7.8681,-3.9762,-4.3106,6.5917,11.2304,-2.8686,1
8.0973,-3.7770,-4.2352,1.9531,12.1459,-3.6621,1
8.1667,-3.8392,-4.2006,-6.2866,6.8359,-4.6386,1
8.0793,-3.8727,-4.3842,-9.7656,4.5165,-4.7607,1
7.7431,-3.9080,-3.9774,-9.8266,6.2866,-3.7841,1
7.6725,-3.9702,-3.8410,-7.6904,4.4555,-5.3100,1
7.8873,-4.2664,-3.6693,-4.7607,4.0283,-6.1645,1
7.8538,-4.2897,-3.5742,0.7324,3.6621,-7.0190,1
8.0434,-4.1515,-3.5653,0.1220,0.9765,-9.3383,1
7.8604,-3.7322,-3.6849,-1.1596,-1.0986,-11.5966,1
7.8526,-3.4642,-3.5156,-4.0283,-8.4228,-10.1318,1
8.0937,-3.8865,-3.1525,-1.3427,-11.2914,-8.1176,1
8.3383,-3.6616,-3.2470,1.1596,-12.2680,-5.9814,1
8.7577,-3.0885,-3.2967,-2.3193,-9.1552,-2.3803,1
8.8624,-2.4975,-3.6203,-6.5307,-4.8217,-2.1972,1
8.8809,-2.7278,-3.6293,-14.2211,0.8544,-1.2817,1
8.7122,-3.6382,-3.5282,-14.9535,3.4789,0.3662,1
8.2229,-3.9188,-3.5198,-12.2069,7.0800,1.3427,1
8.0745,-3.7758,-3.5898,-10.6811,6.5307,0.4272,1
8.3904,-3.3726,-4.0031,-10.5590,7.5683,-1.2817,1
8.2869,-3.2470,-4.1222,-9.3993,9.3993,-2.3193,1
7.8963,-3.6741,-3.8273,-10.1928,4.6386,-2.7465,1
7.9136,-3.7298,-4.0295,-8.9111,4.0283,-3.2958,1
7.9011,-3.4767,-4.0522,-5.7983,2.2582,-3.1738,1
8.0865,-3.4737,-4.1694,-3.1127,2.5024,-3.2348,1
8.3587,-3.5467,-4.0636,0.4882,0.1220,-3.4789,1
8.4191,-3.4313,-4.0666,0.1831,-2.1362,-3.3569,1
8.1750,-3.1728,-4.0007,0.0610,0.2441,-3.6010,1
8.1499,-3.2039,-3.9834,0.4882,-2.2582,-3.8452,1
8.2193,-3.2243,-3.9972,1.2207,-2.7465,-4.4555,1
8.2977,-3.2949,-3.9667,2.3193,-4.2724,-3.9672,1
8.3216,-3.1932,-3.9242,3.1127,-2.6855,-3.1738,1
8.3210,-2.9156,-3.9972,2.0141,-1.4038,-3.0517,1
8.2755,-2.9174,-3.8560,0.2441,0.3662,-2.8686,1
8.3330,-3.1022,-3.6969,-1.3427,-2.8686,-1.9531,1
8.3796,-3.1692,-3.8578,0.2441,-4.6386,-1.5869,1
8.3964,-3.1220,-3.9020,0.0610,-6.1034,-1.2207,1
8.3784,-2.9742,-3.9200,0.8544,-5.7983,-1.2207,1
8.3240,-2.9718,-3.8991,-2.1972,-5.4931,0.4272,1
8.2731,-3.0412,-3.8961,-2.2582,-6.2866,0.0000,1
8.1708,-3.0388,-4.1545,-2.3803,-5.7983,0.7934,1
8.3946,-3.1034,-4.0923,-4.1503,-6.8359,2.0141,1
8.1744,-3.0490,-4.1491,-2.9296,-6.7138,1.8310,1
8.1260,-3.0035,-4.2436,-1.8920,-6.7138,2.0141,1
8.1140,-3.0532,-4.4392,-1.0375,-7.5073,1.3427,1
8.1625,-2.9551,-4.5367,0.6103,-6.4697,0.4272,1
8.1320,-2.9443,-4.5559,0.7324,-4.9438,0.1220,1
8.1571,-2.8893,-4.6325,0.2441,-4.0893,0.3662,1
8.2301,-2.8815,-4.6384,0.3662,-1.4648,0.3662,1
8.0817,-2.8049,-4.5649,0.2441,0.3051,0.5493,1
8.0775,-2.8384,-4.5332,0.7934,0.3051,0.4882,1
8.1355,-2.8558,-4.5912,-1.4038,0.2441,1.0375,1
8.0691,-2.8570,-4.7060,-2.3803,0.3051,0.9765,1
7.9680,-2.8887,-4.6851,-4.4555,-1.1596,1.0986,1
7.9190,-2.9234,-4.6211,-5.3100,-2.5634,1.8310,1
7.9812,-3.0101,-4.6193,-5.6152,-3.5400,1.6479,1
8.0189,-3.0825,-4.5529,-4.3945,-3.7841,1.3427,1
8.0470,-3.0687,-4.6510,-3.2958,-3.2348,1.0986,1
7.9908,-3.0562,-4.7228,-2.5024,-3.6010,0.4272,1
8.0051,-3.1495,-4.7084,-1.4038,-3.3569,0.1220,1
8.0709,-3.1339,-4.7533,0.8544,-1.4648,0.3662,1
8.0530,-3.1501,-4.7575,2.8076,-1.4038,0.1220,1
8.0877,-3.1938,-4.7150,4.3945,-1.3427,0.4882,1
8.0841,-3.1788,-4.6510,4.8217,0.4882,0.7934,1
8.1092,-3.0945,-4.6510,6.1034,0.3051,0.5493,1
8.1308,-3.0658,-4.7712,7.7514,1.2817,0.4882,1
8.1014,-3.1477,-4.7001,8.8500,1.5258,1.3427,1
8.1930,-3.0281,-4.4763,10.0097,2.5024,1.3427,1
8.0446,-3.0819,-4.2981,9.1552,-2.3193,3.3569,1
7.9495,-3.0556,-4.1599,8.3617,-4.8828,4.3334,1
7.8837,-2.9551,-4.0857,6.4697,-7.8735,5.1879,1
7.9328,-2.9958,-4.0325,4.5165,-10.1928,5.4931,1
8.0141,-3.0532,-3.9732,3.6010,-11.4745,6.6528,1
8.0057,-3.0813,-3.9505,0.6713,-13.7939,6.7748,1
8.0901,-3.1633,-4.0378,0.0610,-14.7094,7.0190,1
8.4837,-3.2739,-3.9134,0.1831,-12.6342,7.2021,1
8.7936,-3.0765,-4.0881,0.4882,-8.8500,7.9955,1
8.3748,-3.2859,-4.1198,-2.1972,-5.8593,7.6293,1
8.2588,-3.5246,-4.1120,-4.4555,-3.7231,6.1034,1
8.3581,-3.7513,-4.2849,-1.8310,1.5869,6.5307,1
8.1332,-3.6215,-4.3890,0.3051,2.6245,5.5541,1
7.8161,-3.6741,-4.4219,1.6479,4.5165,5.1879,1
7.8017,-3.7208,-4.4536,3.1127,5.3100,4.2114,1
7.9435,-3.5856,-4.4943,3.8452,8.4838,2.2582,1
7.8418,-3.5545,-4.5176,3.2958,7.6904,1.5869,1
7.5858,-3.7866,-4.6235,3.9672,5.3710,0.7324,1
7.5146,-3.8835,-4.6301,5.0048,2.1972,0.2441,1
7.7162,-3.7316,-4.7629,6.2255,0.6103,0.3051,1
7.7898,-3.6430,-5.1110,6.5307,0.1831,-2.3803,1
7.7288,-3.8470,-5.1690,5.0048,0.0610,-3.9062,1
7.6163,-4.0331,-5.0285,3.6621,0.3051,-4.3334,1
7.6037,-4.0636,-5.0907,3.7841,0.1220,-3.3569,1
7.3465,-3.8967,-5.0027,4.1503,0.1220,-1.7089,1
7.0534,-3.7926,-4.9848,3.9062,0.1831,1.9531,1
6.9236,-3.7782,-4.8993,4.0283,-1.3427,6.3476,1
7.1641,-3.8482,-4.7928,3.9672,-2.7465,9.5824,1
7.3770,-3.9457,-4.8149,8.1176,-5.1879,6.9579,1
7.7012,-4.2041,-4.7030,12.7563,-5.4931,4.8217,1
7.9669,-3.8434,-4.5840,18.9208,1.2207,0.1220,1
8.3503,-3.5539,-4.6995,16.6625,9.0331,-6.8359,1
8.2701,-3.2554,-4.4560,13.9159,11.8407,-9.2162,1
8.3551,-3.3613,-4.4614,11.0473,8.8500,-8.9111,1
8.2486,-3.4683,-4.5577,6.1034,7.0190,-9.7045,1
7.4919,-3.2608,-4.3615,0.3662,9.6435,-8.1786,1
7.4859,-3.3529,-4.0959,-2.5024,6.7748,-1.6479,1
7.7258,-3.7842,-4.0462,-1.1596,6.5307,0.9155,1
7.9208,-3.9110,-4.1060,1.2817,5.6762,0.0000,1
8.1565,-3.8147,-3.9972,2.1972,5.7372,-1.2817,1
8.3150,-3.4701,-3.8075,2.4414,5.1269,-3.6621,1
8.1990,-3.3062,-3.6400,5.4321,3.2348,-5.0048,1
8.2803,-3.3613,-3.4390,6.8359,1.4038,-5.2490,1
8.4335,-3.3278,-3.4151,10.8031,2.3803,-6.3476,1
8.4508,-3.4821,-3.8362,12.8783,2.0751,-6.1034,1
8.8809,-3.4109,-4.1413,5.7372,2.9907,-3.4789,1
9.6867,-3.7208,-3.9750,-8.0566,8.4838,-19.1649,1
7.5876,-1.9555,-3.3415,-11.6576,4.6996,-20.6298,1
7.7515,-2.9078,-3.6885,-5.2490,-9.9487,-3.7841,1
8.6799,-3.4809,-3.8392,2.9907,-7.0190,0.9765,1
8.6051,-2.8067,-4.0564,4.5165,-7.0800,-2.3193,1
8.7607,-2.6147,-4.1712,2.0141,-11.2304,-4.0893,1
8.4490,-2.9802,-3.9912,0.6713,-13.9770,-4.4555,1
8.2971,-3.6681,-3.9481,-2.4414,-14.7704,-8.6669,1
7.9776,-3.8691,-4.0540,2.3803,-12.5121,-14.2211,1
7.7814,-3.5551,-4.0989,7.8735,-13.2445,-14.5263,1
7.6767,-3.1621,-4.1389,14.7704,-13.8549,-13.5497,1
8.0715,-3.1022,-4.4560,16.2353,-14.2211,-10.7421,1
8.3832,-3.0783,-4.4775,14.6484,-10.6200,-7.9345,1
8.2313,-2.8797,-4.4051,7.7514,-5.3100,-7.0190,1
8.1960,-2.7535,-4.1617,1.8920,-1.2207,-5.2490,1
8.3425,-2.9407,-4.0809,-4.6996,2.7465,-2.9907,1
8.5387,-3.3601,-4.0492,-7.3852,3.0517,-1.8310,1
8.1786,-3.9397,-4.1006,-7.9345,3.1127,-2.3803,1
7.8843,-3.8273,-4.3088,-9.0942,4.4555,-4.3945,1
7.4937,-3.4899,-4.4925,-9.6435,6.1645,-4.0283,1
7.4973,-3.3409,-4.4817,-6.8359,6.5917,0.9765,1
7.7270,-3.5282,-4.3298,-3.6621,6.5917,3.6010,1
7.7575,-3.5563,-4.1760,-1.5869,3.7231,3.6010,1
7.7353,-3.5718,-4.3340,0.7324,0.9155,5.7983,1
7.9034,-3.5006,-4.4721,2.0141,-1.8920,7.7514,1
8.0452,-3.6053,-4.5912,3.7231,-2.6855,7.1410,1
8.1092,-3.6915,-4.6235,4.6996,-1.5258,4.8217,1
8.1092,-3.3936,-4.6217,8.1176,2.0141,1.0375,1
8.3461,-3.0825,-4.8412,9.3993,2.7465,-1.4038,1
8.1924,-3.0047,-4.7473,7.9955,1.1596,-1.5869,1
8.0476,-3.1968,-4.5176,5.2490,-3.4179,-3.5400,1
7.8699,-3.1800,-4.4051,5.7372,-4.5776,-4.6996,1
7.8490,-3.0939,-4.4853,6.2866,-2.1362,-4.4555,1
7.7641,-3.2327,-4.6965,2.8076,-2.3803,-1.3427,1
8.0015,-3.5461,-4.5463,1.4648,-2.7465,0.2441,1
7.8681,-3.7782,-4.5355,2.8686,-2.0751,0.1831,1
7.7377,-3.7597,-4.6510,3.6621,0.0610,0.6713,1
7.7862,-3.7202,-4.6247,4.4555,2.6855,2.0751,1
7.8574,-3.6681,-4.5900,5.8593,4.8828,2.5634,1
7.8281,-3.5958,-4.3447,5.7983,4.3945,1.8310,1
7.9615,-3.5647,-4.3226,5.4931,1.8920,1.1596,1
8.0817,-3.5282,-4.1611,5.9814,1.0375,0.6103,1
8.0309,-3.4067,-4.1330,7.0190,0.1831,0.7934,1
8.0775,-3.3152,-4.1174,7.2631,-1.1596,1.4038,1
8.0309,-3.4205,-4.0869,7.5683,-1.5258,1.8310,1
8.1302,-3.4528,-4.0953,7.8124,-2.9907,2.6245,1
8.1990,-3.3960,-4.2466,6.4697,-2.6855,3.5400,1
8.1062,-3.4157,-4.3244,4.6386,-1.5258,3.6621,1
7.9782,-3.5413,-4.3118,0.1220,-1.6479,3.4179,1
8.0745,-3.6598,-4.3190,-3.0517,-2.7465,3.2348,1
7.9848,-3.7310,-4.2460,-3.6621,-2.2582,1.9531,1
7.7874,-3.6580,-4.0791,0.1220,-3.1738,3.1738,1
7.7575,-3.7752,-4.1970,4.0283,-3.6621,4.5776,1
7.9531,-3.8901,-4.3016,9.6435,-2.4414,4.6386,1
7.9746,-4.0456,-4.1832,11.3525,0.9155,2.4414,1
7.9980,-3.9577,-4.1569,12.8173,0.7324,0.1220,1
8.0889,-3.8578,-4.3005,12.4511,-2.9296,-1.6479,1
8.0362,-3.5252,-4.2089,10.0097,-2.8076,-3.0517,1
8.1176,-3.5228,-4.2975,6.4086,-3.4179,-4.3945,1
8.0823,-3.4301,-4.2215,5.7372,-2.5024,-4.0283,1
8.1679,-3.2069,-4.0857,4.3334,-3.2348,0.4272,1
8.0829,-3.2949,-4.1874,1.5258,-1.8920,0.1831,1
8.0662,-3.3511,-4.1826,0.0000,0.5493,0.8544,1
8.1044,-3.3637,-4.1593,-1.4038,1.9531,2.8076,1
8.0979,-3.4319,-4.0977,-2.6855,2.3803,3.5400,1
8.1786,-3.5862,-3.9553,-4.8217,3.1127,4.2724,1
8.1667,-3.6203,-3.9816,-5.5541,2.5024,3.2958,1
8.1308,-3.6017,-4.0366,-5.4321,1.2817,3.0517,1
8.0656,-3.6580,-4.1336,-5.3100,1.4038,2.1972,1
8.0446,-3.7381,-3.9421,-4.6996,1.3427,1.7089,1
7.9495,-3.8578,-3.9924,-3.2348,-1.5869,0.3662,1
7.9621,-3.8650,-4.0271,0.3051,-4.0893,-1.4648,1
7.9962,-3.8051,-4.1102,1.7089,-5.0659,-1.9531,1
8.0141,-3.7734,-4.1204,4.4555,-4.0283,-3.1127,1
8.0739,-3.7124,-4.0821,5.6762,-4.0893,-3.4789,1
8.1032,-3.6622,-4.0923,7.0190,-2.8076,-4.6996,1
8.1074,-3.5844,-4.1431,7.5073,-2.5024,-5.4931,1
8.1278,-3.5976,-4.1688,7.6293,0.9155,-5.9814,1
8.1326,-3.6035,-4.1377,7.1410,0.0610,-6.1645,1
8.0506,-3.5958,-4.0677,7.2631,0.0610,-6.6528,1
7.9453,-3.6921,-4.0893,8.3617,0.4882,-6.7748,1
7.9513,-3.6747,-4.0660,9.7656,0.9155,-6.7138,1
8.0811,-3.6903,-4.0797,10.8031,-1.2207,-6.5917,1
8.0542,-3.7208,-4.0869,12.5121,-1.8310,-7.5683,1
7.9722,-3.7800,-4.0139,13.1835,-2.1972,-8.4838,1
7.9710,-3.8183,-4.0797,15.5639,-2.4414,-9.1552,1
8.0021,-3.7908,-4.0534,18.7377,-2.9296,-9.7045,1
8.0596,-3.7010,-3.9816,19.1649,-4.0283,-9.5824,1
8.0004,-3.7429,-3.9948,21.1181,-4.6996,-10.4369,1
7.9728,-3.8386,-3.9972,22.0946,-5.4321,-10.7421,1
8.0727,-3.8937,-3.9870,24.1088,-5.7983,-10.7421,1
8.0392,-3.7998,-4.0133,24.5360,-5.7372,-11.1083,1
7.9860,-3.6562,-3.9637,24.7802,-5.4321,-10.3759,1
8.0183,-3.6197,-3.9649,23.9867,-7.0190,-9.0942,1
8.0757,-3.7310,-3.9553,23.8036,-6.2866,-8.3617,1
8.0506,-3.7884,-3.9044,23.7426,-6.1034,-8.4228,1
8.0560,-3.7202,-3.9146,22.3998,-5.9814,-7.5073,1
8.1182,-3.6305,-3.9026,21.6674,-6.2866,-6.7138,1
8.1128,-3.7363,-3.9373,20.1415,-6.7138,-6.1645,1
8.0721,-3.8207,-3.8650,19.2260,-7.5073,-5.9203,1
8.0787,-3.7926,-3.8578,18.3104,-5.7983,-5.6152,1
8.1182,-3.7555,-3.9038,17.0897,-5.3710,-5.1269,1
8.1188,-3.7495,-3.8440,16.2963,-5.1269,-4.8828,1
8.1104,-3.7728,-3.8733,14.5873,-4.8217,-4.1503,1
8.1367,-3.7902,-3.8321,12.5121,-4.5165,-3.9672,1
8.1290,-3.7926,-3.8105,11.2304,-4.2114,-3.8452,1
8.0793,-3.7447,-3.7824,9.3383,-3.6621,-3.1127,1
8.0871,-3.7196,-3.7812,8.0566,-4.0283,-2.4414,1
8.1511,-3.7663,-3.7764,5.6762,-4.0283,-1.2817,1
8.1864,-3.7220,-3.7537,2.5024,-2.8686,0.6713,1
8.1720,-3.6125,-3.7710,0.0610,-2.0751,0.3662,1
8.1385,-3.5754,-3.7489,-4.2114,-1.1596,2.3193,1
8.1613,-3.6137,-3.7076,-6.8359,0.3662,3.7231,1
8.1840,-3.7208,-3.7692,-10.5590,0.7324,5.0048,1
8.1732,-3.7190,-3.7950,-14.2211,2.6245,6.5917,1
8.1409,-3.7734,-3.6993,-15.9301,3.3569,7.1410,1
8.1290,-3.7495,-3.7543,-19.2870,5.4931,7.9345,1
8.1840,-3.7842,-3.6723,-21.9115,4.6386,9.5824,1
8.0679,-3.8853,-3.7244,-23.6205,5.9814,9.7045,1
8.0560,-3.8195,-3.7944,-25.7567,6.3476,10.7421,1
8.0608,-3.7950,-3.8416,-27.0995,7.2631,11.8407,1
8.0081,-3.8662,-3.8111,-29.3578,7.8735,13.1225,1
7.9818,-3.9708,-3.8087,-30.5785,7.6904,13.5497,1
8.0165,-3.9044,-3.8895,-33.5082,8.4228,15.0146,1
8.0566,-3.8009,-3.9272,-38.4520,9.0942,16.9066,1
8.0937,-3.7178,-4.0049,-41.2596,11.1694,18.0053,1
8.0362,-3.7010,-4.0348,-45.7762,12.0849,19.4091,1
8.0069,-3.7519,-4.1838,-48.3397,13.6108,19.7143,1
7.9202,-3.7770,-4.2293,-51.2083,16.3573,19.9584,1
7.8544,-3.8243,-4.2993,-52.9173,17.3339,19.5922,1
7.8143,-3.7932,-4.3890,-54.7483,17.5780,19.8974,1
7.7970,-3.8069,-4.4147,-54.4432,19.0429,20.3856,1
7.7282,-3.9373,-4.3878,-52.1849,17.7001,20.2636,1
7.7533,-4.0689,-4.4668,-47.7904,15.0756,17.7001,1
7.7048,-4.1509,-4.5960,-42.6634,13.4887,14.5263,1
7.7007,-4.0977,-4.6612,-38.8182,12.5121,12.8173,1
7.7144,-4.0695,-4.5649,-32.4706,10.6811,9.2773,1
7.7270,-3.9852,-4.5625,-27.8929,8.9111,7.3242,1
7.8017,-3.8482,-4.5678,-21.4843,7.1410,4.8217,1
7.8047,-3.6275,-4.6438,-16.4184,6.7748,3.7231,1
7.8406,-3.4289,-4.6002,-13.6718,6.5307,3.7231,1
7.8628,-3.4205,-4.6552,-10.6200,4.3945,3.4179,1
7.9890,-3.4151,-4.7312,-9.2162,5.1269,2.6855,1
7.9555,-3.4767,-4.7671,-6.7748,4.4555,0.8544,1
7.8843,-3.5742,-4.6983,-4.3334,1.8920,0.9765,1
7.8029,-3.6119,-4.7240,-2.5634,1.4038,0.0000,1
7.6498,-3.6861,-4.6791,2.3803,0.3662,-1.5258,1
7.5409,-3.5449,-4.4967,6.8969,-1.4648,-3.0517,1
8.1194,-3.1118,-4.3549,12.3901,-4.3945,-6.9579,1
8.2917,-2.7714,-4.4446,14.7094,-6.2866,-9.8266,1
8.3509,-2.5286,-4.3363,16.0522,-3.0517,-10.0097,1
8.5375,-2.8360,-4.4727,15.7470,-6.0424,-7.3852,1
8.4628,-3.3308,-4.4105,14.4652,-2.5634,-9.4604,1
7.9974,-3.2392,-4.0648,15.4418,-2.1972,-9.0942,1
7.9351,-3.1351,-4.1760,17.5170,-3.4179,-8.1176,1
7.8496,-3.1363,-4.2041,18.0053,-3.8452,-7.4462,1
8.0225,-3.1764,-4.3633,19.0429,-4.2724,-6.1034,1
8.3449,-3.0652,-4.5248,18.6156,0.9765,-3.6010,1
8.2719,-2.9910,-4.3974,15.1977,1.4038,-3.0517,1
8.1415,-2.9389,-4.2711,8.3617,2.7465,-1.0375,1
8.1086,-2.9132,-4.2879,4.5165,2.8076,0.8544,1
8.0362,-2.9060,-4.2903,0.7324,3.4789,4.2724,1
8.1020,-3.0556,-4.3070,-4.9438,1.6479,8.4228,1
8.1373,-3.3212,-4.3005,-7.8124,1.4038,8.4228,1
8.0356,-3.4079,-4.3489,-10.9252,0.6713,7.1410,1
8.0159,-3.5018,-4.5625,-12.0849,1.3427,6.7748,1
7.9178,-3.3643,-4.4805,-14.0990,3.1738,9.2773,1
7.8496,-3.4989,-4.5577,-15.5639,2.5634,11.1694,1
7.8987,-4.0337,-4.4159,-15.6859,2.9907,10.6811,1
7.8143,-4.1868,-4.2335,-15.5639,2.5634,8.3007,1
7.6773,-4.0677,-4.4249,-14.3432,0.4272,8.5448,1
7.8167,-4.3770,-4.5619,-10.8031,-5.6152,7.3242,1
7.6851,-4.2544,-4.5834,-4.3945,-10.4980,4.9438,1
7.6875,-3.8727,-4.7443,0.9765,-12.2069,2.6245,1
7.5996,-3.4869,-5.0045,2.0141,-11.1694,0.1831,1
7.5218,-3.0640,-4.9052,2.6245,-8.9721,2.1362,1
7.6558,-2.9288,-4.8358,1.4648,-2.3803,5.6152,1
7.8299,-2.9599,-4.7539,-2.0141,5.5541,7.9345,1
8.0057,-3.1447,-4.6857,-5.4321,7.6904,8.3617,1
8.0889,-3.3996,-4.6217,-10.6200,12.6342,10.3149,1
8.0901,-3.6496,-4.7910,-14.4652,15.2587,11.0473,1
8.1822,-3.9134,-4.6534,-19.0429,19.1039,8.7890,1
8.4472,-4.1078,-4.1042,-17.0897,16.9677,4.3334,1
8.6877,-4.0600,-2.7643,-8.1786,13.9770,-2.5634,1
7.7521,-4.1413,-3.0574,13.0004,3.1127,-6.7748,1
7.9675,-3.2081,-3.8775,19.5312,3.2348,0.9765,1
9.1184,-3.1615,-3.6454,23.7426,14.4042,-5.3100,1
9.1669,-3.1746,-3.8578,12.8173,5.8593,-14.2211,1
8.1009,-2.6949,-3.8219,3.2958,0.1220,-14.3432,1
8.2630,-2.9174,-3.5802,-4.5776,-10.9252,-7.1410,1
8.3413,-3.3308,-3.4516,-3.7841,-14.5873,-5.0048,1
7.8490,-3.3146,-3.8787,0.8544,-14.2821,0.7324,1
7.6564,-3.1226,-4.2203,-2.8076,-14.2211,4.9438,1
7.4464,-3.2452,-4.4183,-6.7138,-11.2914,8.5448,1
7.5164,-3.7256,-4.6360,-8.9721,-10.8031,8.6059,1
6.8159,-4.4368,-4.5038,-5.1269,-5.8593,8.1176,1
6.6843,-4.5768,-4.2789,1.2817,-7.9345,4.2114,1
6.8979,-4.0480,-3.8536,3.9672,-7.4462,-1.7089,1
7.4991,-2.8594,-3.4002,1.4648,-9.3383,-5.6762,1
7.9435,-2.6566,-3.5934,-1.3427,-10.3149,-4.9438,1
9.4229,-3.2793,-4.0516,-3.6010,-9.7656,0.9765,1
10.3483,-4.5391,-4.1300,-5.2490,-7.4462,6.3476,1
9.7363,-4.7210,-4.3262,-5.1879,-15.0146,12.6342,1
8.4945,-4.5601,-4.6007,-2.8686,-13.3666,18.6767,1
7.8843,-4.0965,-4.5409,2.5024,-6.2255,23.6205,1
7.4751,-3.7525,-4.2568,0.9765,11.6576,16.7235,1
7.0331,-4.0097,-4.1138,-2.3803,16.3573,11.9628,1
6.9942,-4.3076,-4.0307,-4.5165,10.3759,6.9579,1
6.9714,-4.5098,-4.2173,-3.7231,2.9907,4.6386,1
6.9762,-4.4805,-4.8119,1.2207,-6.7138,1.4648,1
6.9505,-4.5924,-5.1332,5.1269,-13.0614,0.3051,1
6.9391,-4.6624,-5.2660,6.5917,-8.0566,-2.9907,1
6.6107,-4.3836,-5.2821,4.4555,0.7324,-9.0331,1
6.6173,-4.3357,-5.3724,3.1127,3.7841,-9.8266,1
7.3597,-4.3692,-5.5794,1.0375,3.6010,-8.9111,1
7.4117,-4.3106,-5.4388,0.1220,3.7841,-12.8173,1
7.4859,-4.1934,-5.1056,-1.7700,2.9296,-13.1835,1
7.5092,-4.2089,-5.0315,-1.9531,3.2958,-10.3759,1
7.5667,-4.1491,-4.8340,0.6103,5.4321,-7.8124,1
7.6677,-3.9320,-4.6498,1.5869,5.3710,-4.8217,1
7.6474,-3.8177,-4.5583,0.9155,5.7372,-5.6762,1
7.6516,-3.5150,-4.2873,-1.0375,4.6996,-6.4086,1
7.7503,-3.2907,-4.2454,-3.2348,4.2724,-5.9814,1
7.9435,-3.2440,-4.4488,-4.6996,1.8920,-5.6762,1
8.0997,-3.5336,-4.5218,-6.3476,1.3427,-6.0424,1
7.9752,-3.5623,-4.4925,-8.3617,0.8544,-6.8359,1
8.0751,-3.6041,-4.3543,-7.2021,2.1972,-3.8452,1
8.1553,-3.5401,-4.3615,-4.2114,0.6103,0.4272,1
8.1421,-3.3613,-4.2735,-3.2958,-1.5869,2.4414,1
7.9232,-3.2470,-4.1288,-4.5776,-1.6479,4.0283,1
7.8753,-3.3702,-4.0438,-2.9907,0.5493,5.1269,1
8.1541,-3.4648,-4.1676,-1.1596,0.0610,5.8593,1
8.2941,-3.4396,-4.2233,0.4882,0.2441,5.2490,1
8.2289,-3.1262,-4.0636,-2.0141,1.3427,4.0283,1
8.0703,-2.8115,-3.7686,-3.1127,2.9296,4.3334,1
8.0398,-2.8630,-3.7645,-2.8686,0.7934,7.5683,1
8.2498,-3.2877,-3.7495,-2.3193,-2.5024,7.9345,1
8.4376,-3.3888,-3.6299,-1.4648,-4.9438,7.3242,1
8.4771,-3.5084,-3.7160,0.6103,-3.3569,7.1410,1
8.4777,-3.6000,-3.7986,4.9438,-2.8686,9.3993,1
8.2821,-3.5988,-3.9397,7.9345,-1.5869,10.0707,1
8.1990,-3.4923,-4.0600,7.9955,0.5493,9.7656,1
8.3790,-3.3631,-4.1593,6.4086,0.6103,9.2773,1
8.1116,-3.6526,-4.2789,5.1269,0.9765,7.0800,1
7.8610,-3.8530,-4.4853,2.8686,-1.5869,2.2582,1
7.9268,-3.7621,-4.6905,0.7934,0.4272,-1.7700,1
8.0889,-3.5437,-4.6827,0.5493,1.5258,-4.0283,1
8.1152,-3.5078,-4.9058,-1.6479,0.7324,-5.1269,1
8.1583,-3.7262,-4.9423,-3.6621,-2.5634,-5.0659,1
7.9226,-3.8679,-4.8113,-3.5400,-3.4179,-5.1879,1
7.8460,-3.8608,-4.6534,-1.5869,-4.4555,-4.6996,1
7.6223,-3.9254,-4.6408,0.1220,-5.3100,-5.6152,1
7.6540,-3.8937,-4.7174,2.5634,-3.3569,-6.6528,1
7.5122,-3.9206,-4.6743,4.7607,-2.1362,-6.7138,1
7.5403,-3.9200,-4.7048,6.8359,0.4272,-6.7138,1
7.5954,-3.7950,-4.7030,6.5917,2.1972,-5.6152,1
7.5864,-3.6963,-4.7132,5.9814,1.2817,-4.0283,1
7.4201,-3.7082,-4.6977,2.3193,0.5493,0.7324,1
7.3477,-3.7435,-4.7563,0.2441,2.1362,2.4414,1
7.3166,-3.6478,-4.6271,-2.5634,2.0751,4.7607,1
7.2693,-3.6113,-4.5601,-3.9672,3.2348,8.1176,1
7.5014,-3.6628,-4.4841,-2.9296,4.9438,10.4980,1
7.6552,-3.8757,-4.4769,-1.4038,6.8359,10.3759,1
8.0907,-4.1240,-4.6025,0.3051,9.9487,3.8452,1
7.6606,-4.2035,-4.5649,0.4882,9.4604,0.0000,1
7.9782,-4.1473,-4.7144,0.1831,11.9628,-3.6010,1
7.7605,-4.1605,-4.6929,0.0610,13.6718,-7.2021,1
7.1988,-3.8219,-4.5254,-2.6245,14.0990,-10.4980,1
7.0049,-3.6053,-4.4991,-3.2348,12.5121,-5.6762,1
7.3579,-3.6933,-4.5762,-2.8686,12.6952,-3.4179,1
7.6516,-3.9302,-4.7078,0.5493,10.0707,-3.2348,1
8.0111,-4.3178,-4.7856,0.8544,8.9721,-5.0048,1
7.8197,-4.1120,-4.7928,1.5258,9.4604,-7.2631,1
7.6307,-3.9900,-4.7114,1.3427,12.7563,-5.7983,1
7.5218,-4.0672,-4.3818,0.3051,13.0614,-4.3945,1
7.6642,-4.1389,-4.1485,0.4272,9.3383,-2.3193,1
7.9890,-4.0055,-3.9732,0.0610,6.3476,-1.9531,1
8.0171,-3.8201,-3.8793,0.2441,1.2817,-3.1738,1
7.8681,-3.6945,-3.6604,1.1596,-1.7089,-1.7089,1
8.2618,-3.4348,-3.6340,2.1362,-4.8217,-1.4648,1
8.2145,-3.3888,-3.7399,2.9296,-5.8593,1.0375,1
8.3455,-3.2853,-3.5742,1.8920,-6.0424,4.1503,1
8.1684,-3.3810,-3.7082,1.7700,-6.0424,5.0048,1
8.2319,-3.4079,-3.6915,1.8310,-4.0283,6.1645,1
8.2755,-3.5120,-3.6520,2.9907,-3.2958,6.7748,1
8.2911,-3.5521,-3.6795,4.4555,-1.4038,7.3242,1
8.1924,-3.7519,-4.4644,2.4414,-1.0986,8.1176,1
8.6087,-4.1629,-4.4309,-9.8266,1.0986,7.2631,1
8.2307,-3.5521,-3.6586,-16.4794,5.1269,-3.9062,1
7.3016,-3.6969,-3.7286,-12.6342,1.2207,-1.9531,1
7.5816,-4.1012,-4.1258,-6.2255,-1.9531,4.2724,1
8.1062,-3.8458,-4.1647,-3.4789,0.3662,2.7465,1
7.9854,-3.6442,-3.9655,-3.1127,1.0375,0.9765,1
7.8705,-3.6376,-3.9044,-4.3945,-1.4648,1.7700,1
7.8658,-3.9032,-4.1180,-3.9672,-3.1738,3.2348,1
8.0901,-4.2071,-4.3142,-3.2958,-2.6855,1.1596,1
8.0757,-4.0313,-4.1838,-2.1362,-2.6245,-1.9531,1
7.9112,-3.8404,-4.0037,0.3662,-2.5024,-3.6010,1
7.8807,-3.8626,-4.0438,2.9296,-3.5400,-3.9062,1
7.8951,-3.9254,-4.1503,5.0048,-3.2348,-5.2490,1
7.8711,-3.8339,-4.1832,6.7138,-3.0517,-6.5917,1
7.9298,-3.7232,-4.2616,7.2631,-3.1127,-7.1410,1
7.8975,-3.7022,-4.2335,7.8124,-3.8452,-7.0190,1
7.8412,-3.6053,-4.1318,5.9203,-5.9203,-5.9814,1
7.6887,-3.3170,-4.2143,3.7231,-7.0190,-3.0517,1
7.8023,-3.0837,-4.4033,0.7324,-6.1645,1.6479,1
8.0333,-3.3756,-4.6731,0.5493,-7.2021,2.5024,1
7.9710,-4.0462,-4.4470,-1.3427,-8.1786,2.3193,1
7.8305,-4.1856,-4.2221,0.0000,-11.1694,0.7324,1
7.8370,-3.9672,-4.4404,1.2817,-13.6108,0.7324,1
7.7796,-3.7896,-4.6277,1.0375,-11.6576,0.2441,1
7.8831,-3.6364,-4.8083,0.3051,-8.9111,0.4882,1
7.7850,-3.6580,-4.5230,-2.9907,-5.9814,-1.3427,1
7.7156,-3.7238,-4.4608,-1.9531,-4.0283,-1.4648,1
7.7970,-3.7429,-4.4111,-1.0986,-5.7983,0.0610,1
7.9788,-3.8004,-4.4739,0.3662,-5.5541,0.5493,1
7.8777,-3.9493,-4.4787,0.3662,-5.8593,0.9155,1
7.5134,-3.9188,-4.5176,1.0986,-5.3710,-1.0375,1
7.5511,-3.7058,-4.5218,0.8544,-3.9062,0.1220,1
7.7282,-3.5557,-4.4799,0.2441,-3.7841,0.1831,1
7.8735,-3.4241,-4.3770,-1.1596,-4.1503,0.0610,1
7.8101,-3.3547,-4.3824,-3.1127,-6.5917,1.8920,1
7.8837,-3.2273,-4.3555,-5.3710,-7.0800,3.2958,1
7.9280,-3.3625,-4.2921,-7.5073,-8.5448,3.2348,1
7.9357,-3.7495,-4.7126,-7.2631,-8.9721,3.1127,1
7.6456,-3.7190,-5.3676,-12.9394,-7.5683,5.7983,1
7.8574,-3.6939,-4.9100,-21.3622,-5.6152,0.8544,1
7.6929,-3.6580,-4.2436,-17.4560,-1.7089,-8.7280,1
7.0109,-3.6424,-3.9984,-6.8359,-2.7465,-6.1034,1
7.7928,-3.9433,-4.5463,4.2114,-10.0707,0.4882,1
8.7003,-3.4139,-5.0243,12.8783,-5.4931,-8.5448,1
8.2414,-3.0556,-4.8903,10.0097,-3.1738,-16.0522,1
7.9172,-2.8809,-4.7814,7.3852,-1.9531,-14.0990,1
8.1080,-2.9365,-4.9920,2.0141,-3.3569,-13.0614,1
8.0279,-2.9138,-5.1750,-1.5869,0.4272,-12.3290,1
8.0422,-3.1746,-5.2342,-5.3710,-1.4038,-9.0942,1
7.8909,-3.3672,-5.1056,-6.2255,0.3051,-6.8359,1
7.4087,-3.3338,-4.8257,-6.8359,1.3427,-4.3945,1
7.5182,-3.3044,-4.9513,-5.7983,0.1831,2.2582,1
7.9519,-3.5120,-5.4125,-4.5776,-1.3427,4.8828,1
8.1577,-3.4857,-5.5962,-7.8735,-3.1127,4.2724,1
8.0632,-3.4229,-5.4729,-11.2914,-3.2958,0.7324,1
7.7312,-3.5437,-5.5513,-10.6200,-4.1503,0.1831,1
7.6319,-3.6885,-5.2456,-8.2397,-5.1879,0.4272,1
7.6049,-3.7573,-5.1900,-3.6621,-4.2724,-1.9531,1
7.5565,-3.5838,-5.1158,1.7089,-4.4555,-4.8828,1
7.4943,-3.2925,-5.1098,4.0893,-4.0893,-3.6621,1
7.4697,-2.9958,-5.1463,4.5165,-3.3569,-2.4414,1
7.3842,-2.9096,-5.2133,4.2114,0.8544,-1.0375,1
7.4632,-2.9868,-5.0913,3.4789,0.4272,0.4882,1
7.4985,-3.1740,-5.0171,2.1972,1.8310,0.3662,1
7.4470,-3.3391,-4.8765,3.5400,5.9203,3.1738,1
7.6821,-3.3852,-4.8879,4.1503,11.4745,3.2348,1
7.7730,-3.3678,-5.0255,5.1879,14.5873,2.7465,1
8.0291,-3.4295,-4.8879,6.7748,16.7235,4.3334,1
7.7138,-3.5611,-4.6600,7.0800,19.4091,5.3100,1
7.7886,-3.5802,-4.3657,6.8969,22.0946,7.2021,1
8.5094,-3.2488,-4.2759,7.6293,18.6156,9.9487,1
8.4927,-3.1591,-4.3010,7.8124,16.2963,12.5732,1
8.0596,-3.3667,-4.0205,5.3100,12.3290,13.3056,1
7.7425,-3.6825,-3.7094,5.2490,9.7045,12.3290,1
7.7102,-3.7944,-3.9074,7.8124,5.2490,9.8876,1
7.5702,-4.0103,-4.1766,9.8876,6.7138,8.6059,1
7.7156,-4.0366,-4.1629,11.5966,4.0283,3.6010,1
7.6797,-3.8093,-4.0875,11.9018,5.4931,0.8544,1
7.8592,-3.6664,-4.0773,10.3759,1.7089,0.7324,1
7.9896,-3.6454,-4.0229,7.8124,0.3051,0.3051,1
8.1960,-3.6484,-4.0881,5.6152,1.0375,-1.6479,1
8.3126,-3.6729,-3.9373,1.8920,2.3803,-2.1362,1
8.3964,-3.5126,-3.6346,-1.0375,5.0048,-1.8920,1
8.0021,-3.3720,-3.6065,-4.5776,7.5683,-6.2255,1
7.7371,-3.3708,-3.4779,-9.7045,7.6904,-8.7280,1
7.7671,-3.4863,-3.6508,-12.2069,6.4086,-10.5590,1
7.9788,-3.8141,-4.1712,-9.8876,6.4697,-11.2304,1
8.1565,-3.8919,-4.1144,-12.0849,6.9579,-10.6811,1
8.2301,-3.8422,-4.2394,-9.8266,7.5073,-9.8876,1
7.3914,-4.2239,-4.2418,-10.9862,12.6952,-8.1176,1
7.3627,-4.4051,-3.8117,-11.5356,10.6200,-7.3852,1
7.8616,-4.1144,-3.8213,-6.6528,9.7656,-5.4931,1
7.5816,-4.1449,-4.0552,-5.7372,1.6479,-4.2114,1
8.1020,-4.0755,-4.0498,-4.6386,-1.3427,-2.0751,1
8.0679,-3.8201,-4.3932,-3.7231,-1.4038,-8.2397,1
8.0937,-3.9326,-4.7479,-2.5024,-9.8876,-9.7656,1
8.0482,-3.8267,-4.5439,2.1972,-11.5966,-5.1269,1
8.0620,-3.2883,-4.5278,0.2441,-14.7704,-4.0283,1
7.7868,-2.8061,-4.6707,-3.2958,-12.8783,-4.0283,1
7.6396,-2.8522,-4.5296,-7.4462,-8.6669,-6.4697,1
7.6576,-2.9730,-4.6606,-6.9579,-9.0942,-6.8969,1
7.8329,-3.0323,-4.8891,-1.9531,-11.3525,-5.7983,1
7.7898,-3.0556,-5.0129,3.2348,-11.3525,-4.0283,1
7.6540,-3.1058,-4.8723,6.4086,-13.8549,-4.2724,1
7.5834,-2.9748,-4.9005,8.7890,-10.0707,-5.1879,1
7.3716,-2.6416,-4.7832,9.0331,-4.3334,-4.2724,1
7.4913,-2.1864,-4.8209,8.1786,1.1596,2.0141,1
7.7383,-2.0835,-4.8161,8.6669,6.2866,9.1552,1
9.0233,-2.6620,-4.9704,10.6811,8.0566,11.2914,1
9.1752,-3.0221,-4.6666,16.6625,14.7094,5.6762,1
9.3607,-3.4552,-4.3884,15.9911,13.4887,-1.3427,1
8.9760,-3.1788,-4.1473,13.6718,5.0659,-10.9862,1
8.3401,-2.8534,-4.2185,9.2162,-4.4555,-13.0004,1
8.4430,-3.0077,-4.5415,8.7890,-6.5307,-13.5497,1
8.0177,-2.7589,-4.2652,9.6435,0.4272,-13.8549,1
7.6205,-2.2935,-4.2221,10.8031,-1.6479,-9.7045,1
7.7946,-2.4729,-4.6851,14.8315,0.1831,-3.3569,1
8.3677,-2.7661,-4.7497,17.8832,4.8217,0.9765,1
8.1924,-3.1238,-4.3722,19.0429,9.6435,-1.9531,1
8.1421,-3.0765,-4.1258,18.2494,4.0893,-1.7700,1
8.3838,-3.3942,-4.1563,17.0287,2.6245,-2.3803,1
7.9926,-3.5593,-4.1760,14.4042,2.6855,-3.9672,1
7.7204,-3.4552,-4.4853,12.8783,3.2958,0.0000,1
8.4323,-3.3726,-4.5637,9.6435,6.8359,1.8920,1
8.1840,-2.9760,-4.2370,0.9155,2.8076,-2.1362,1
7.5158,-2.6255,-4.0360,-6.7748,1.5869,2.6855,1
8.0548,-3.3248,-4.1653,-10.1928,1.1596,11.9018,1
8.0428,-3.4175,-4.1491,-13.9770,5.5541,10.8642,1
7.8071,-3.5252,-4.0025,-16.1742,6.1034,10.8642,1
8.2630,-3.9822,-3.8303,-13.5497,2.5024,13.9770,1
8.4305,-4.2891,-3.5718,-8.4838,4.8828,13.9770,1
8.4496,-3.9499,-3.3589,-6.0424,3.2958,8.3007,1
8.2863,-3.7752,-3.3996,-4.5165,3.8452,5.1269,1
8.1134,-3.7752,-3.5904,-2.9296,2.8686,5.9203,1
8.0805,-3.7860,-3.7549,-1.8920,3.8452,5.7372,1
8.1092,-3.5371,-3.9367,-3.9062,2.3803,5.8593,1
8.5124,-3.2452,-4.3214,-9.0942,4.3945,9.2162,1
8.4693,-3.4313,-4.2412,-19.0429,5.0659,7.5073,1
8.1068,-3.9559,-3.8799,-24.9022,0.5493,2.2582,1
7.7365,-3.9984,-3.7872,-23.0101,-2.6855,0.8544,1
7.6259,-4.0600,-3.8787,-18.3715,-5.0659,1.5258,1
7.7060,-3.7597,-4.0701,-11.0473,-6.7748,3.1738,1
7.7671,-3.7651,-4.1371,-6.7748,-4.3945,3.8452,1
8.2486,-3.6646,-3.9649,-5.0048,-2.4414,4.8217,1
8.3862,-3.5551,-3.9637,-4.9438,4.0283,4.8217,1
8.6602,-3.4121,-4.0151,-7.0800,5.3710,4.0893,1
8.6494,-3.1190,-3.9397,-9.4604,2.5634,3.2958,1
8.5423,-3.1722,-3.6987,-10.4980,-4.2114,3.6621,1
8.3198,-3.6017,-3.6287,-8.2397,-6.3476,1.9531,1
8.0889,-3.5419,-3.6532,0.7324,-15.0756,0.7934,1
7.8221,-3.1549,-4.1126,6.8359,-13.8549,1.6479,1
7.7964,-2.8959,-4.4985,10.0097,-9.3993,4.5165,1
8.1266,-2.8839,-4.8197,2.9907,6.2866,7.3852,1
8.8678,-4.0713,-4.8281,-1.4038,5.5541,7.7514,1
8.7481,-3.9798,-4.8287,-14.7704,0.1831,-3.1127,1
7.3842,-3.6616,-4.4057,-21.4232,-3.9672,-4.3945,1
7.1946,-3.2333,-4.6606,-24.7191,-15.9301,2.5024,1
7.1324,-3.2285,-4.7898,-21.5453,-17.2729,8.7280,1
7.3764,-3.3367,-5.0063,-19.2260,-12.8173,10.6811,1
7.5571,-3.4570,-5.0937,-15.4418,-6.1645,9.1552,1
7.6642,-3.5838,-4.9549,-10.1318,1.5869,4.8217,1
7.8825,-3.8691,-4.8257,-6.6528,0.2441,2.3193,1
7.9274,-4.0630,-4.5756,-3.4179,-2.5634,-1.4648,1
7.7258,-3.7621,-4.3627,-2.0751,-7.1410,-4.5165,1
7.6061,-3.5048,-4.4703,1.4038,-14.2211,-4.3945,1
7.5577,-3.3499,-5.0129,4.3945,-12.0849,-4.2724,1
7.5314,-3.3678,-5.0506,7.0800,-9.3993,-3.9062,1
7.5116,-3.3822,-4.9513,9.5824,0.1831,-3.0517,1
7.6839,-3.5700,-5.0255,11.1694,3.1127,-2.7465,1
7.7934,-3.4953,-4.8251,12.3901,7.6904,-2.7465,1
7.8592,-3.4115,-4.5487,10.3149,6.3476,-2.9907,1
7.9675,-3.2608,-4.4177,8.3617,5.0659,-1.9531,1
8.1110,-3.3152,-4.5984,4.6386,5.0048,-2.2582,1
8.1601,-3.2799,-4.9657,1.4648,6.1645,-3.4789,1
7.6283,-3.2524,-5.1284,-3.3569,8.4228,-4.5165,1
7.4087,-3.3780,-4.9118,-6.9579,14.2211,-2.4414,1
7.4099,-3.4331,-4.4919,-8.4838,14.7704,0.1831,1
7.7102,-3.3158,-4.3106,-8.6059,15.1977,0.7934,1
7.8466,-3.4695,-4.2987,-7.3242,6.4697,0.4272,1
7.9334,-3.9212,-4.2825,-2.6855,3.3569,-1.1596,1
7.8861,-4.0414,-4.4093,2.9296,-1.3427,-3.1738,1
7.9477,-3.7459,-4.4512,7.4462,-2.9296,-4.7607,1
8.1481,-3.2033,-4.5505,10.9862,-5.5541,-5.3100,1
9.1782,-3.0580,-4.9752,2.3193,1.0986,-16.4794,1
8.3790,-2.9425,-3.8171,7.1410,4.8828,-10.9252,1
8.5740,-2.7481,-5.1577,-1.1596,8.7280,-16.1132,1
7.2400,-2.6931,-4.0043,0.4882,12.8783,-6.5917,1
8.2241,-3.1788,-4.4871,0.4882,-5.6152,-1.4648,1
7.8089,-3.5623,-4.4931,-7.3242,4.9438,-7.2631,1
7.9686,-3.1872,-4.5457,0.1831,2.8686,2.0751,1
8.0644,-3.2015,-4.7216,-2.3193,13.0614,-3.6621,1
7.4632,-3.1094,-4.1970,-3.2958,14.1601,-3.2348,1
8.1146,-3.3714,-4.4949,-3.1738,4.8828,-3.0517,1
6.9565,-2.7607,-3.8943,3.9062,10.9862,3.4179,1
8.7260,-3.2458,-4.2197,2.8076,-1.0986,4.2114,1
8.3808,-2.8546,-3.7854,0.0000,3.8452,1.6479,1
8.3102,-2.8223,-3.7920,-4.1503,1.1596,0.6103,1
8.1176,-2.7822,-3.4121,-2.9907,13.2445,1.6479,1
7.6157,-2.9365,-4.1144,-2.3803,21.3012,8.0566,1
11.2259,-2.8989,-3.7417,35.2782,72.6316,17.8222,1
10.6211,-2.5836,-3.1322,23.3153,55.6028,4.9438,1
8.0123,-3.0687,-1.9034,6.1645,30.9447,0.6713,1
7.5750,-3.6831,-2.2923,-9.7045,33.1420,5.6762,1
8.8354,-3.0885,-2.8935,-9.0942,38.1468,12.6952,1
9.6418,-3.4121,-3.2602,-12.5732,23.4374,15.5028,1
7.9842,-3.4438,-2.8995,-13.5497,40.1610,10.1928,1
9.9930,-3.2895,-2.7469,-17.2729,55.9690,1.8310,1
7.3561,-2.8989,-2.1678,-5.2490,5.7983,10.0097,1
7.3752,-3.8416,-1.5355,-10.9862,6.7748,8.9111,1
8.6955,-4.3411,-2.7457,-31.9823,18.1884,10.7421,1
9.4199,-4.0695,-3.1914,-22.5219,7.6293,12.3290,1
8.7858,-4.2017,-2.2582,-15.9301,4.0283,10.9252,1
8.7385,-3.9098,-2.1038,-16.6625,16.1742,14.6484,1
8.4496,-3.6532,-2.5758,-17.3339,-24.8412,12.7563,1
8.8139,-3.9170,-3.6927,-44.7996,-57.2508,20.1415,1
8.2695,-3.9020,-6.3529,-44.3724,-1.2817,13.6108,1
8.2408,-3.7615,-1.3776,-21.9725,17.6391,3.0517,1
8.6303,-4.1934,-3.6406,-1.8310,-91.9797,-8.0566,1
8.8313,-3.9966,-4.5086,-16.8456,-87.5241,0.3051,1
8.1236,-4.0372,-3.8524,-8.4228,6.8969,-7.9345,1
8.5304,-3.8219,-4.4219,3.1127,45.0438,-12.3901,1
7.9549,-3.3696,-3.9038,5.7372,57.3118,-6.8969,1
7.6271,-3.3445,-3.5868,3.5400,40.2831,-6.7748,1
8.3635,-3.5844,-3.3523,-2.6245,29.0526,-1.0375,1
7.8490,-3.5910,-2.9312,-8.0566,23.5595,2.3803,1
8.3108,-2.7068,-2.8073,-23.1933,-31.7992,3.4789,1
8.2743,-2.7343,-2.2235,-59.9974,-153.4419,14.0990,1
8.7613,-3.2775,-5.8301,-45.5931,-194.0302,23.0101,1
9.4929,-3.7160,-5.1032,-8.3617,-109.9240,26.0009,1
7.9459,-4.8137,-5.4861,-8.3617,-101.6843,28.3812,1
6.9726,-4.3148,-6.2153,-36.3158,-48.8279,-2.9907,1
6.0861,-3.2159,-5.8528,19.2260,0.8544,4.5165,1
7.3405,-2.5124,-5.5615,44.2503,14.4042,2.2582,1
6.9607,-3.3391,-5.7314,43.0907,-3.7231,9.7045,1
7.5571,-2.6398,-5.9802,52.8563,-8.9721,23.1322,1
7.3591,-3.2500,-6.3571,70.7395,-31.2499,27.4047,1
6.8590,-4.6725,-6.2039,55.5418,-29.0526,25.5736,1
6.1262,-4.8161,-6.3182,69.9461,-31.8602,36.2547,1
3.5216,-5.3383,-5.3730,16.9677,-9.5214,61.5843,1
7.5559,-5.1104,-6.1250,-23.6205,-57.7391,34.1185,1
7.9028,-6.1142,-6.7238,-69.9461,-106.8112,12.8783,1
7.2538,-5.7302,-7.1862,-120.6661,-162.8413,5.4931,1
6.1776,-4.9938,-7.0193,-138.3053,-162.7193,-7.3242,1
4.1306,-3.7579,-9.1322,-149.1085,-120.8492,-18.7987,1
2.4394,-2.3258,-6.6305,-84.2283,-66.4060,10.5590,1
2.5669,-1.5840,-8.0961,-9.3383,-14.7704,0.3051,1
3.9469,-1.9064,-7.9746,13.6718,0.9155,-11.2304,1
4.0923,-2.2677,-7.8789,10.5590,-7.5683,-1.7700,1
4.6546,-2.5154,-7.5062,30.3343,-21.1181,6.8359,1
2.8983,-2.5405,-6.0406,110.6564,13.0614,30.9447,1
1.7946,-3.0017,-7.4039,56.1521,232.4823,47.8514,1
8.1409,-4.2454,-7.4285,50.4149,250.6707,12.5121,1
7.3818,-5.0249,-8.0871,52.9173,47.7904,-2.0141,1
7.2921,-4.8502,-8.3407,62.5608,-36.1937,10.0707,1
8.0715,-4.3812,-8.3491,0.2441,-36.9261,2.3803,1
3.9882,-3.4995,-6.5491,-47.1190,-99.3039,-57.4949,1
6.0382,-3.2075,-7.3160,-2.6855,-31.2499,-46.2034,1
3.7740,-3.5066,-7.3579,8.6059,-9.6435,-31.3719,1
5.1224,-4.3447,-6.1166,14.7704,8.2397,-14.6484,1
5.2540,-4.6193,-5.5848,35.2782,20.0805,1.5258,1
5.5728,-4.5278,-6.8626,36.8651,6.5307,12.5121,1
4.7336,-4.2023,-6.3667,31.7381,6.5307,8.9721,1
4.2388,-4.6677,-6.1770,28.7474,0.1220,12.5732,1
6.1758,-3.7669,-7.4201,-71.4719,-69.0305,-18.4936,1
3.9589,-3.9942,-7.3800,13.3666,-23.7426,35.4613,1
4.6576,-3.9266,-7.6283,31.4330,-37.5975,28.8695,1
5.1571,-5.3060,-6.7866,21.0570,-24.1698,25.4515,1
4.4835,-5.4478,-6.5288,18.4325,-26.0009,26.5502,1
4.7856,-5.2725,-6.6855,8.1176,-3.6010,7.9955,1
4.3728,-5.2887,-7.1850,-3.8452,6.5917,10.2538,1
4.6241,-4.8975,-7.1940,-2.7465,12.9394,17.9442,1
3.7417,-4.2305,-6.6981,9.4604,11.6576,9.0331,1
4.8077,-5.1433,-6.7357,3.3569,-1.0375,1.4038,1
4.4560,-5.4245,-6.5437,-1.4038,5.0659,6.7748,1
3.6490,-5.0021,-7.3064,4.8217,12.0238,12.1459,1
4.7371,-5.3192,-7.6791,-3.4179,-17.2118,14.8315,1
4.9806,-5.6626,-8.4424,-4.8828,-27.7709,4.6386,1
4.7204,-5.6225,-8.1344,-18.3715,-16.6015,-22.0336,1
5.3802,-5.5471,-7.5254,-48.7669,-32.6537,-35.7665,1
4.0642,-4.9435,-7.8017,-62.3167,-10.9252,-42.6024,1
4.4135,-4.3334,-8.4281,-34.0575,41.6258,-58.7156,1
4.9627,-4.5595,-7.5170,0.3051,41.7479,-84.5334,1
4.9489,-4.9938,-3.4378,5.4931,56.0911,-70.1902,1
4.9932,-3.9134,-6.1489,7.0190,75.3782,-36.0106,1
5.7637,-2.9276,-7.7868,19.5922,67.4436,-49.0111,1
5.3389,-3.3463,-5.9988,63.7815,93.0173,-62.4388,1
4.7318,-3.7561,-4.5086,59.3260,140.4415,-27.5267,1
5.6279,-3.6807,-4.7910,56.5794,159.1182,-17.7001,1
6.7340,-3.7836,-4.8335,41.6258,148.8643,-14.7704,1
8.3407,-4.1527,-4.4967,29.8461,145.1412,-21.4232,1
8.8564,-4.2903,-3.1549,25.6957,113.7082,-17.6391,1
9.3038,-4.0115,-3.9726,23.8646,109.2526,-3.6010,1
8.9048,-3.7746,-3.3050,24.2308,63.7815,0.9765,1
9.1812,-4.0319,-3.2644,13.8549,19.2870,-6.0424,1
8.8025,-3.6909,-2.8546,9.5214,5.8593,-6.8359,1
8.8372,-3.7304,-2.7619,-13.3666,-62.4388,-16.5404,1
8.6386,-3.8243,-2.7164,-45.7762,-161.1934,-25.6347,1
6.7555,-4.1748,-3.9487,-60.7908,-216.8573,-20.6908,1
6.6837,-3.8626,-5.2887,-52.3680,-169.3110,-11.6576,1
7.2035,-3.6562,-5.3407,-52.1238,-59.3260,15.1366,1
7.7730,-3.0652,-5.4179,-52.7952,-15.6859,35.0951,1
7.1467,-2.5579,-6.2069,-50.1097,2.6855,23.3764,1
7.4632,-2.7846,-6.7423,-22.0336,16.9066,3.9062,1
6.9786,-3.2524,-5.3742,-9.7045,43.3348,22.3998,1
7.9555,-2.8995,-5.9946,8.9721,54.4432,1.6479,1
6.6945,-3.1950,-5.9072,-15.8690,82.1531,20.7518,1
8.5220,-2.7475,-4.5176,-19.0429,99.0598,6.4086,1
7.8747,-2.5920,-5.2797,1.8920,89.1721,-5.2490,1
8.2426,-3.1651,-4.9663,16.6015,87.5852,-9.0942,1
9.1429,-2.7266,-3.9385,4.5776,65.0633,-7.0190,1
8.0416,-3.1034,-3.4043,-2.7465,55.7249,-11.5966,1
8.3587,-3.4438,-3.5365,-12.2069,50.4149,-14.0380,1
8.5076,-3.5395,-3.4612,-5.2490,52.9173,-13.6718,1
8.3359,-4.1102,-3.2949,0.6713,55.4808,-14.8315,1
8.7984,-3.2398,-2.1804,21.4232,34.3016,-21.4232,1
8.1690,-3.0299,-3.1824,-27.7709,22.3998,0.4882,1
6.1369,-4.4081,-4.0139,-13.0004,45.9593,18.4936,1
11.5603,-2.3605,-2.7523,11.7797,81.1765,-23.7426,1
7.7180,-2.4532,-2.4041,-29.6630,67.2605,-10.8031,1
7.9974,-2.0051,-1.5511,-13.3666,43.2738,28.1981,1
9.1627,-2.6386,-2.8067,-17.7611,59.9363,22.4608,1
8.2073,-3.4002,0.6299,-14.5873,117.5534,12.8173,1
9.1034,-3.5988,0.3343,-8.9111,82.2751,-10.7421,1
9.2632,-2.8474,-1.0905,2.2582,77.7585,-22.4608,1
9.6143,-2.5328,0.6185,-2.1972,-22.7050,-7.8124,1
10.2717,-2.7577,-1.3968,-1.3427,-19.4701,-9.0331,1
8.6362,-2.9222,0.5539,-11.6576,3.7841,-12.0238,1
8.0751,-2.7541,0.4875,20.0805,-5.7983,-54.4432,1
9.7136,-2.5244,-1.1970,38.3299,-20.9350,-114.5626,1
10.1240,-2.1978,-1.9884,44.6776,-46.9969,-97.8391,1
9.4803,-1.2376,-2.1445,3.6010,-25.7567,-46.0203,1
9.7005,0.5706,-1.9950,1.2207,-30.0902,-10.3149,1
10.2448,0.8267,-1.6773,3.9062,-17.2729,3.1127,1
10.1455,0.9343,0.8781,7.4462,1.3427,17.5170,1
9.5473,-1.3405,-1.3722,6.7138,20.6908,27.4657,1
10.4117,-2.5082,0.0221,82.8244,-65.0022,-3.7841,1
9.8249,-1.6055,-1.2598,46.3255,-22.5829,10.8642,1
8.1984,-1.4171,0.9182,30.2733,-3.3569,26.4281,1
9.4959,-1.4560,0.7573,36.7430,-101.9284,30.3343,1
9.5784,-2.4125,-2.1326,33.6302,-76.1716,25.5126,1
9.5018,-2.3060,-1.3704,28.5643,-34.3016,4.5776,1
9.5156,-2.0219,-1.7635,27.1605,-27.3436,0.4882,1
9.3816,-1.8687,-2.0524,21.3622,-16.2353,2.0751,1
9.5042,-1.9836,-2.1828,19.4701,-6.7138,2.5634,1
9.3098,-1.9962,-2.1918,14.9535,3.9062,1.9531,1
9.3732,-1.8412,-2.1661,12.9394,7.8124,4.3945,1
9.2327,-2.0261,-2.2995,9.9487,12.5732,3.1738,1
9.2644,-2.3563,-2.5543,8.3007,12.6342,4.3945,1
9.0759,-2.6141,-2.6668,0.7324,11.6576,7.0800,1
9.0305,-2.8396,-2.9946,-3.1738,11.7187,5.6152,1
9.0520,-2.8941,-2.5764,-11.3525,9.8266,1.4648,1
8.8002,-2.7050,-2.4999,-12.0238,2.7465,-2.0141,1
8.6297,-2.8247,-2.8612,-2.9907,-3.9062,-2.8076,1
8.6303,-2.7667,-3.1758,6.3476,-8.3617,-1.4038,1
8.9180,-2.7170,-2.6829,8.7280,-7.5073,-3.1127,1
8.8678,-2.5244,-2.2677,16.6015,-3.7841,-8.2397,1
8.8570,-2.1613,-2.0560,19.2870,-4.2114,-10.6811,1
8.7684,-2.2390,-2.1541,19.1649,-8.2397,-10.3759,1
8.7918,-2.2402,-2.0632,16.5404,-9.8266,-7.0190,1
9.0358,-1.8741,-2.1439,15.9911,-12.7563,-3.2348,1
8.8911,-1.8000,-2.2199,12.4511,-17.8222,-1.0375,1
8.8420,-2.0751,-2.0685,11.0473,-14.6484,-3.0517,1
9.0358,-2.4299,-1.6839,8.9111,-8.9111,-4.7607,1
9.2237,-2.3820,-1.2975,8.9111,-6.8359,0.3051,1
9.6598,-1.9136,-1.2239,7.3242,-5.2490,2.8076,1
10.2125,-1.7802,-1.2717,0.7324,-5.0659,-2.0141,1
10.4703,-2.0733,-1.5373,-2.2582,-7.3852,-5.8593,1
10.0486,-2.5525,-1.8604,-6.3476,-7.5683,-2.0141,1
9.3559,-2.6781,-1.9453,-7.0190,-4.3945,6.8359,1
8.6949,-2.6368,-2.0333,-5.7372,-1.5258,10.3149,1
8.5579,-2.7720,-2.0973,-5.7372,3.2958,7.2631,1
8.6584,-2.8295,-2.1445,-7.9955,2.9907,4.3945,1
8.8151,-2.9874,-2.2247,-8.0566,0.6713,3.3569,1
9.0837,-3.1082,-2.3964,0.7934,-5.4931,4.8828,1
9.3122,-3.2464,-2.4364,5.1269,-7.1410,4.7607,1
9.3332,-3.1256,-2.5513,12.7563,-6.9579,3.2348,1
9.0789,-3.0137,-2.7457,15.3808,-5.9203,3.9672,1
8.8636,-2.8133,-2.5782,15.3197,-3.2348,5.7983,1
8.7984,-2.5405,-2.4311,11.0473,-7.1410,6.8969,1
8.9425,-2.3102,-2.4101,8.9721,-9.2162,7.0800,1
9.0179,-2.3838,-2.3784,5.9814,-10.8031,9.1552,1
8.9479,-2.4514,-2.2534,3.5400,-10.5590,10.2538,1
8.9617,-2.4574,-2.3042,0.4272,-11.5356,10.6811,1
8.9784,-2.5178,-2.3611,0.7934,-11.2914,9.5824,1
8.8002,-2.6057,-2.5052,-1.9531,-10.6811,8.4228,1
8.6943,-2.6656,-2.5220,-5.4931,-13.4887,7.1410,1
8.8474,-2.6919,-2.4185,-7.0190,-10.9862,4.8217,1
8.9712,-2.7990,-2.6171,-7.8735,-9.3383,0.9765,1
9.1471,-3.0831,-2.9186,-5.4931,-2.9907,-1.8920,1
9.2877,-3.5748,-3.0795,-4.6996,0.5493,-2.9907,1
9.0939,-3.2560,-2.6823,-3.6010,3.5400,-2.6855,1
8.7505,-2.5806,-2.5196,-4.6996,3.6010,-1.8310,1
8.7822,-2.7493,-2.5507,-9.2773,-1.4038,0.1220,1
8.9371,-3.2004,-2.5190,-7.2631,2.3193,0.6103,1
8.7684,-3.4175,-2.7200,-3.5400,1.1596,-2.1362,1
8.6237,-3.3912,-2.9617,2.0141,-4.5165,-2.2582,1
8.8588,-3.1351,-2.9880,3.5400,-5.5541,-2.5634,1
9.0753,-3.0047,-2.9138,4.7607,-3.6621,-2.2582,1
9.1094,-2.8103,-2.9575,6.7138,-1.5869,-3.2958,1
9.0155,-2.8337,-3.1992,6.0424,-1.5869,-4.6996,1
9.0287,-2.8815,-3.2315,5.7983,-2.5024,-4.3334,1
9.0215,-2.8510,-3.1238,7.0190,-3.0517,-4.6386,1
9.0041,-2.6805,-3.1639,6.6528,-5.2490,-5.2490,1
8.9916,-2.4681,-3.2045,4.8828,-3.9672,-5.7372,1
8.8678,-2.5292,-3.3182,3.7231,-2.2582,-5.7983,1
8.7870,-2.5292,-3.2464,0.9155,0.1831,-6.1034,1
8.7445,-2.4939,-3.2273,0.1220,1.1596,-6.5307,1
8.6913,-2.4023,-3.1896,0.1220,1.2207,-5.7983,1
8.7679,-2.3862,-3.2895,-1.2207,1.5258,-4.6996,1
8.6333,-2.3473,-3.1908,-2.0141,3.3569,-3.6621,1
8.6243,-2.1571,-2.8695,0.9155,6.6528,-1.7700,1
8.7074,-2.2552,-2.8941,1.7700,6.0424,-1.2817,1
8.9659,-2.2354,-2.7960,3.0517,5.3100,0.9765,1
9.0903,-2.3216,-2.7750,5.3710,2.4414,-1.7089,1
9.1669,-2.3144,-2.7960,6.1034,2.9907,-2.3803,1
9.1052,-2.2546,-2.6727,4.9438,0.8544,-4.6386,1
9.0430,-2.2037,-2.8037,3.3569,0.4272,-4.8217,1
8.9132,-2.0961,-2.8157,3.3569,0.5493,-4.6386,1
9.0047,-2.0889,-2.7822,4.0893,2.1362,-4.1503,1
9.1477,-2.1523,-2.8749,3.4179,4.3334,-4.2114,1
8.9491,-2.0213,-2.9665,0.1220,4.5776,-2.3193,1
8.7762,-2.1266,-2.9174,-3.3569,4.8828,0.4272,1
8.7966,-2.4047,-2.9922,-4.8828,3.4179,1.9531,1
8.8737,-2.5052,-3.0592,-6.5307,4.0893,3.1127,1
8.9024,-2.4735,-3.2147,-7.7514,3.7231,2.8076,1
8.6697,-2.4670,-3.3158,-9.8266,3.2348,2.1972,1
8.7786,-2.6542,-3.3062,-10.9252,2.5024,2.6245,1
8.8337,-2.8881,-3.1597,-11.1083,3.1738,1.1596,1
8.7128,-2.7726,-2.8211,-10.6200,2.3803,0.3051,1
8.8833,-2.5483,-2.7858,-7.6904,0.0000,1.0986,1
8.9665,-2.5866,-2.7511,-5.4321,-2.1972,1.6479,1
8.9826,-2.4933,-2.7308,-4.0283,-2.4414,3.1738,1
9.1328,-2.2564,-2.6243,-3.0517,-1.1596,3.5400,1
9.1615,-2.2666,-2.5513,-2.9907,0.4272,3.8452,1
9.1447,-2.4269,-2.4496,-3.4789,0.0000,3.5400,1
9.0358,-2.3808,-2.3850,-3.0517,0.0610,2.6245,1
9.0071,-2.4424,-2.4538,-1.4038,0.9155,2.9296,1
8.9168,-2.4831,-2.4035,0.4882,2.5024,3.7231,1
8.7607,-2.5435,-2.6608,0.1831,0.4882,5.6152,1
9.1172,-2.9826,-2.9676,-1.0375,0.7324,5.1269,1
8.8061,-2.7571,-2.5980,-3.5400,1.7089,0.4272,1
8.3635,-2.6368,-2.7445,0.6103,-1.5869,3.1127,1
8.8277,-3.0921,-2.8229,2.5634,0.7324,6.4086,1
8.8983,-3.0939,-2.7547,7.3242,0.0610,5.9814,1
8.9790,-2.7182,-2.8115,8.5448,0.1831,5.0659,1
9.1669,-2.3790,-2.9952,7.9345,-1.0375,4.6996,1
9.0693,-2.3653,-3.0095,2.9296,-2.6855,4.6386,1
8.8600,-2.4496,-2.8157,0.6713,-3.8452,3.7841,1
8.8408,-2.6087,-2.9240,-3.2348,-5.2490,2.4414,1
8.9868,-2.9168,-2.7972,-3.8452,-5.0048,1.4648,1
8.9324,-2.7744,-2.7625,-4.5165,-2.8076,1.2207,1
8.9240,-2.6255,-2.6662,-7.2021,-2.0141,1.7089,1
8.8504,-2.5334,-2.6452,-9.7045,-1.5869,2.1362,1
8.8360,-2.3437,-2.7194,-16.0522,-2.6245,2.6245,1
9.0293,-2.3198,-2.8516,-20.5077,-2.0141,2.7465,1
9.0269,-2.7613,-2.4586,-22.3998,-1.6479,2.8686,1
8.9473,-3.0424,-2.3910,-17.7001,-1.9531,3.2348,1
8.8767,-3.1872,-2.5447,-13.9770,-2.9907,3.7841,1
8.7619,-3.1363,-2.5770,-7.3242,-3.6621,2.8076,1
8.7870,-2.9898,-2.6285,-3.4789,-3.6621,1.8920,1
8.9569,-2.8031,-2.6901,0.6713,-3.9062,0.1831,1
8.9491,-2.7122,-2.7984,3.6621,-5.0048,-1.8310,1
8.8396,-2.7230,-2.8947,4.6386,-5.4931,-1.9531,1
8.7487,-2.6626,-3.1561,4.1503,-6.2255,-1.1596,1
8.9162,-2.5603,-3.5347,1.3427,-5.4321,-1.1596,1
8.8594,-2.7104,-3.8470,-2.8076,-3.6621,-2.4414,1
8.9473,-2.9527,-4.0450,-10.2538,-4.8828,-2.7465,1
8.7278,-3.3708,-3.2105,-10.7421,-2.6245,-5.9203,1
8.2067,-3.4947,-2.8725,0.5493,-2.0141,-5.1269,1
8.4484,-3.4642,-3.1232,12.7563,-2.2582,-2.8686,1
9.1256,-2.7469,-3.3996,16.6625,1.8310,-5.1269,1
9.1417,-2.3904,-3.5156,14.7094,7.6904,-10.1928,1
8.5304,-2.4658,-3.1232,11.1083,9.1552,-9.0942,1
8.6919,-2.4586,-2.7020,9.3993,2.6245,-2.3803,1
9.1130,-2.5579,-2.7936,10.4369,-7.8735,-2.7465,1
9.3194,-2.7906,-2.9940,9.5214,-8.9721,-4.9438,1
9.2105,-2.8145,-3.1764,7.8124,-4.6996,-7.0800,1
8.9210,-2.6787,-3.2045,5.7983,0.4882,-7.9345,1
8.8779,-2.5639,-2.9102,2.8686,0.4882,-8.7890,1
8.8953,-2.5310,-2.7960,0.6103,-1.1596,-7.6293,1
8.9778,-2.4358,-2.9060,0.7324,-3.6621,-6.8359,1
9.0574,-2.3635,-3.2021,0.7324,-5.2490,-6.3476,1
8.9485,-2.2887,-3.2781,-2.9296,-5.7983,-5.6762,1
8.9509,-2.5058,-3.0628,-6.2866,-8.4228,-4.7607,1
8.8779,-2.5310,-2.9114,-4.3334,-10.1928,-2.7465,1
9.0143,-2.3868,-3.0849,-2.7465,-11.0473,0.6103,1
8.9479,-2.1936,-3.3020,-2.6245,-8.2397,0.1220,1
8.6434,-2.1433,-3.2063,-2.8076,-5.8593,0.1831,1
8.4568,-2.2965,-3.1304,-4.6996,-2.9296,0.1831,1
8.4023,-2.3850,-3.1645,-2.3803,-2.8076,0.3662,1
8.6943,-2.4502,-3.1609,-1.0986,-2.8686,0.2441,1
8.7679,-2.3910,-3.2129,1.1596,0.3662,0.8544,1
8.6285,-2.2779,-3.3996,1.5258,1.6479,0.9155,1
8.6674,-2.3665,-3.5060,1.7700,5.1879,-1.2207,1
8.6231,-2.4293,-3.4474,3.0517,8.8500,-1.5869,1
8.4849,-2.6207,-3.2979,2.6855,8.9111,-2.2582,1
8.4065,-2.5501,-3.1501,2.9907,7.7514,-3.7231,1
8.4269,-2.3599,-2.8492,3.0517,5.5541,-6.2255,1
8.7846,-2.1517,-2.8773,4.1503,5.0048,-7.6293,1
9.2243,-2.1517,-2.9706,6.0424,5.4321,-10.1318,1
9.3858,-2.0733,-3.0472,4.9438,6.1645,-10.1318,1
9.3984,-2.2390,-3.0149,4.2724,6.3476,-7.4462,1
9.2213,-2.3617,-2.6769,5.3100,5.7983,-5.1269,1
9.1351,-2.4107,-2.6799,4.2724,0.0610,0.3051,1
8.9910,-2.3982,-2.7786,3.3569,0.2441,2.6855,1
8.9060,-2.1846,-2.8965,1.5258,5.1879,0.9155,1
8.8791,-2.1218,-3.0161,0.6713,0.9765,0.6103,1
8.6333,-2.4442,-3.1962,-2.1972,0.4882,1.5869,1
8.5836,-2.5286,-3.2614,-1.3427,-2.1972,4.9438,1
8.6177,-2.4400,-3.2871,0.1831,-4.3334,6.3476,1
8.7984,-2.3982,-3.4486,0.6713,-4.8828,5.9814,1
8.8097,-2.4340,-3.4169,-1.4038,-2.7465,5.3710,1
8.6362,-2.4831,-3.4695,-1.7700,-2.6855,5.4321,1
8.7882,-2.4077,-3.6155,0.6713,-3.4179,5.9203,1
8.8109,-2.4203,-3.4851,0.6103,-1.2207,5.3100,1
8.9587,-2.3288,-3.3134,0.4272,-2.9296,5.3100,1
8.9587,-2.3300,-3.3589,-1.2207,0.7934,5.3100,1
8.8654,-2.3796,-3.4313,-1.5869,0.9155,5.4321,1
8.8935,-2.3359,-3.1722,-4.5165,3.6010,7.8124,1
8.8570,-2.2689,-3.0472,-4.5776,5.5541,7.3852,1
8.8157,-2.2540,-3.0699,-7.0190,5.1269,7.0800,1
8.8863,-2.2552,-3.1339,-9.0331,5.3710,6.6528,1
8.8175,-2.3114,-3.1052,-10.1928,5.5541,5.8593,1
8.8301,-2.4376,-2.9868,-10.1928,1.3427,5.1269,1
8.8474,-2.4975,-2.9180,-8.6669,0.1220,4.4555,1
8.8725,-2.4693,-2.9096,-7.0190,-2.6855,3.3569,1
8.8779,-2.3359,-2.8947,-4.8828,0.8544,0.6103,1
8.8002,-2.2510,-2.8283,-6.2255,-2.9907,0.2441,1
8.8486,-2.2947,-2.8839,-6.5917,-4.4555,-1.0986,1
8.9557,-2.5256,-3.0161,-5.1879,-6.0424,0.5493,1
9.2345,-2.7702,-3.5120,-1.3427,-4.6996,0.8544,1
9.1561,-2.7637,-3.4199,1.4038,-2.1972,0.7324,1
8.6554,-2.4448,-3.1962,0.3662,4.3945,0.5493,1
8.6500,-2.2899,-2.9276,-1.7089,5.4321,0.5493,1
8.6895,-2.4137,-2.8265,-2.8076,4.4555,0.0000,1
8.7493,-2.6979,-2.8857,-3.9672,1.2207,0.8544,1
8.8498,-2.7236,-2.9772,-2.7465,-3.1127,0.0610,1
8.9174,-2.6548,-3.1435,0.1831,-2.1362,0.4882,1
8.9288,-2.5860,-3.2398,0.7934,0.7934,0.4882,1
8.8941,-2.5603,-3.2177,0.5493,0.1831,0.1831,1
8.7978,-2.5232,-3.1058,-1.0375,0.6713,0.6103,1
8.7326,-2.5148,-3.1357,-2.2582,0.7324,1.9531,1
8.7248,-2.5304,-3.1429,-2.6855,0.6103,2.4414,1
8.7649,-2.6051,-3.1746,-3.1127,-1.2817,2.4414,1
8.8145,-2.6380,-3.1040,-2.6855,-1.4648,1.7089,1
8.8265,-2.6512,-3.1974,-2.0141,-1.7700,1.7700,1
8.8767,-2.5980,-3.1878,-1.6479,0.7934,2.3803,1
8.8432,-2.5351,-3.1310,-1.0375,0.0610,1.9531,1
9.0305,-2.5429,-3.0478,0.6713,0.5493,1.8310,1
9.1304,-2.6482,-3.0125,0.5493,2.1362,2.6245,1
9.4127,-2.5274,-2.7176,1.6479,4.6386,2.4414,1
9.7902,-2.4514,-2.8935,5.7983,8.2397,2.5024,1
9.9248,-2.5998,-2.7421,5.6762,11.5356,3.3569,1
9.3116,-2.5986,-2.4311,4.6386,15.0756,2.9907,1
9.0496,-2.3958,-2.3288,1.5869,14.4042,1.7089,1
9.1477,-2.2935,-2.2941,0.9155,12.7563,2.6855,1
9.0861,-2.7409,-2.3623,-3.0517,8.4838,2.6855,1
9.1340,-2.7236,-2.5022,-5.8593,1.4038,2.8686,1
9.0149,-2.7864,-2.6183,-6.3476,1.5258,2.1972,1
8.8701,-2.6949,-2.6614,-8.3617,0.9155,0.0610,1
8.7732,-2.7966,-2.7774,-8.6669,2.4414,-1.8310,1
8.6488,-2.8061,-2.8995,-6.7138,0.0610,0.6103,1
8.5884,-2.9473,-3.0077,-2.6245,0.3662,0.3662,1
8.5962,-3.0795,-2.9557,0.9765,0.2441,-1.2817,1
8.6297,-3.1339,-2.9192,1.4038,0.9155,-3.7231,1
8.5932,-3.0753,-3.1106,3.8452,0.5493,-3.9062,1
8.5011,-2.9258,-3.2751,7.3242,-1.7089,-1.8920,1
8.4658,-2.7655,-3.3696,9.7045,1.3427,-1.3427,1
8.4801,-2.6685,-3.3553,9.7656,0.4272,-3.0517,1
8.4598,-2.7583,-3.5569,7.3852,-3.7231,-7.5073,1
8.4023,-3.0502,-3.7040,8.4838,-4.9438,-8.9721,1
8.1445,-3.2859,-3.3936,12.2680,-8.9721,-8.1176,1
7.7282,-2.7667,-3.2733,20.1415,-5.4931,0.1831,1
8.0404,-2.2564,-3.2458,27.9540,0.4882,5.2490,1
8.5573,-2.0787,-3.4923,31.6771,5.7372,7.4462,1
9.3332,-2.0087,-3.7579,29.8461,10.6811,9.0942,1
9.3553,-2.2289,-3.2201,26.1229,15.7470,9.2773,1
9.1537,-2.4837,-3.0197,23.6815,15.3197,7.8735,1
9.5377,-2.5429,-2.7589,21.1181,11.0473,6.7748,1
9.6023,-2.4735,-2.7080,15.2587,3.4179,3.9062,1
9.4851,-2.6614,-2.8444,12.3901,0.9155,0.6713,1
8.9952,-2.7212,-2.4891,10.0097,0.6103,0.4882,1
8.8414,-2.6512,-2.4197,9.5214,0.5493,0.9155,1
8.6644,-2.6356,-2.3593,9.2773,0.7934,0.2441,1
8.7134,-2.6847,-2.3168,10.2538,0.6713,2.9296,1
8.7744,-2.7738,-2.2265,9.3993,0.4882,6.1034,1
8.9952,-2.7942,-2.1188,8.5448,0.7324,7.9955,1
9.1543,-2.8354,-2.1367,5.3710,1.4038,11.4135,1
9.0305,-2.8546,-2.2163,1.3427,2.6855,13.1225,1
8.9766,-2.7858,-2.1864,-5.3710,3.5400,14.8315,1
8.8977,-2.9102,-2.2402,-10.6200,3.9062,16.2353,1
8.8492,-3.3954,-2.2205,-12.0238,3.6621,16.2963,1
8.8163,-3.4941,-2.1798,-11.4745,4.7607,15.6249,1
8.9748,-3.3164,-2.2558,-10.6200,4.6386,15.2587,1
8.8648,-3.4366,-2.3730,-12.3901,5.0659,12.6342,1
8.8522,-3.4929,-2.5286,-14.5873,4.0893,10.8031,1
8.9330,-3.4181,-2.7122,-16.6625,3.7841,9.5214,1
8.7643,-3.3936,-2.5686,-19.4091,5.0048,8.1176,1
8.5974,-3.5371,-2.5172,-20.3246,4.2724,7.9345,1
8.5357,-3.6658,-2.5710,-19.8363,4.3334,7.2021,1
8.5770,-3.7776,-2.5836,-17.6391,5.7372,7.2631,1
8.4855,-3.8877,-2.4813,-15.1366,5.8593,7.3852,1
8.4520,-4.0043,-2.3772,-10.6811,4.5776,8.6059,1
8.5346,-4.1431,-2.3048,-7.6293,4.0893,8.3007,1
8.5603,-4.1126,-2.3964,-4.0283,4.5776,6.2866,1
8.5752,-4.0695,-2.3952,0.7324,5.0659,4.6996,1
8.6506,-4.0869,-2.3162,0.7324,5.7983,3.9672,1
8.6416,-4.0354,-2.2037,2.0141,5.4321,3.1738,1
8.5507,-3.9840,-2.2725,3.2348,5.4931,1.8310,1
8.5836,-4.0695,-2.2755,5.0659,4.4555,1.1596,1
8.5591,-4.1282,-2.2019,6.4697,2.5024,1.2207,1
8.5782,-4.1353,-2.0602,8.1786,1.6479,1.4648,1
8.5567,-4.0672,-2.1188,8.8500,0.4272,1.0986,1
8.5872,-4.0265,-2.0979,8.7280,0.8544,0.6713,1
8.6494,-4.0905,-2.0967,7.9955,-1.8310,0.3051,1
8.6153,-4.0737,-2.1146,7.0190,-2.1362,0.0610,1
8.5543,-3.9816,-2.0979,5.9814,-2.0141,0.0610,1
8.5561,-4.0582,-2.1014,3.5400,-1.3427,0.5493,1
8.5645,-4.1724,-2.0207,2.2582,-1.2207,0.8544,1
8.5788,-4.2263,-2.0913,1.2207,-1.8920,0.9155,1
8.5716,-4.2490,-2.1547,0.8544,-1.0375,1.0986,1
8.5393,-4.2705,-2.0751,0.2441,-1.8310,0.7324,1
8.5346,-4.2382,-2.0578,-1.4648,-2.3193,0.1220,1
8.5250,-4.2556,-2.1565,-1.5869,-2.8076,0.1220,1
8.5483,-4.2317,-2.1601,-1.9531,-2.2582,0.2441,1
8.4915,-4.2454,-2.1732,-1.1596,-1.8920,0.0610,1
8.5776,-4.2550,-2.1786,0.5493,-1.8920,0.1831,1
8.5824,-4.2592,-2.1445,0.3662,-2.0141,0.6713,1
8.5740,-4.1790,-2.1816,1.0375,-1.6479,0.9155,1
8.5154,-4.1557,-2.1571,1.4038,-1.2207,-1.4038,1
8.5525,-4.1712,-2.1523,1.4038,0.8544,-1.7089,1
8.6404,-4.1916,-2.1960,1.9531,0.5493,-2.1972,1
8.5669,-4.1437,-2.1661,2.6245,0.6103,-2.6245,1
8.5034,-4.1318,-2.1457,2.9907,0.6713,-2.5634,1
8.6356,-4.0426,-2.1678,3.3569,0.0610,-2.3803,1
8.6021,-4.0695,-2.1894,2.6855,0.1831,-2.7465,1
8.5986,-4.0235,-2.1858,2.1972,0.1220,-3.0517,1
8.5830,-4.0163,-2.1607,2.5634,0.4882,-2.9907,1
8.5968,-3.9667,-2.1385,2.7465,0.2441,-2.7465,1
8.6488,-3.9481,-2.1738,2.6855,0.2441,-2.9296,1
8.6817,-3.9284,-2.1619,2.8686,0.5493,-3.7841,1
8.6321,-3.9284,-2.1798,2.6855,0.7934,-3.9672,1
8.6536,-3.9050,-2.1367,3.1127,-1.4038,-3.9672,1
8.6584,-3.8685,-2.1003,3.1738,-1.8310,-3.9062,1
8.6554,-3.8853,-2.1535,3.2958,-2.0141,-4.5165,1
8.6823,-3.9080,-2.1194,3.1127,-1.7700,-4.2114,1
8.6380,-3.9326,-2.1068,3.5400,-1.8920,-3.7841,1
8.6626,-3.9134,-2.0703,4.3334,-1.9531,-3.9672,1
8.6961,-3.9738,-2.1320,5.3100,-1.8920,-4.1503,1
8.7266,-4.0043,-2.2037,6.7748,-1.7700,-4.9438,1
8.6715,-3.9690,-2.1774,7.8735,0.6713,-5.0659,1
8.6231,-3.7740,-2.1744,8.0566,0.1831,-4.6386,1
8.6021,-3.6598,-2.2199,7.2631,0.7324,-4.3334,1
8.6961,-3.6586,-2.1930,6.7138,2.4414,-3.5400,1
8.6931,-3.6909,-2.1565,5.2490,2.8686,-2.6245,1
8.6703,-3.6975,-2.1003,3.5400,3.9672,-1.4038,1
8.7056,-3.7950,-2.1469,2.3803,4.9438,-1.2207,1
8.7224,-3.7746,-2.0949,0.8544,5.6152,-1.0375,1
8.7134,-3.7465,-2.1188,0.2441,5.1879,0.4272,1
8.8247,-3.6167,-2.0590,0.7324,5.3710,0.3662,1
8.8540,-3.6329,-2.0871,-1.2817,5.1879,0.7934,1
8.7595,-3.6957,-2.0099,-1.5869,4.9438,-2.0751,1
8.7230,-3.7244,-1.9627,-1.9531,3.5400,-2.8686,1
8.7984,-3.6951,-1.9136,0.2441,1.8920,-3.6621,1
8.7846,-3.6568,-1.9782,0.9155,1.3427,-4.3945,1
8.7445,-3.6592,-1.8879,0.0610,-1.4038,-4.2724,1
8.7876,-3.5940,-1.8777,0.9155,-2.5024,-4.1503,1
8.7009,-3.5730,-1.8993,1.5869,-3.2958,-3.7841,1
8.6805,-3.6233,-1.9471,2.5634,-4.6386,-2.8686,1
8.7834,-3.6628,-1.9334,2.8686,-4.0893,-2.3193,1
8.7852,-3.4971,-1.8526,1.8310,-4.0893,0.1831,1
8.6997,-3.3116,-2.0446,3.9672,-3.4789,1.1596,1
8.7122,-3.6873,-1.9866,7.5683,-3.4179,1.4038,1
8.8486,-3.8464,-1.8610,9.1552,-3.4179,0.0610,1
9.0819,-3.7848,-1.8807,10.7421,-4.4555,-1.5869,1
9.0723,-3.7525,-2.0458,12.1459,-5.0659,-4.2724,1
8.8229,-3.8177,-2.1523,11.4135,-4.0283,-6.2866,1
8.7212,-3.6765,-2.0428,8.7890,-2.0141,-7.3852,1
8.6500,-3.4701,-2.0769,7.9345,-2.0751,-5.2490,1
8.7050,-3.4791,-2.0997,8.7280,-2.8076,-3.0517,1
8.7164,-3.4815,-2.1122,8.5448,-4.1503,0.3662,1
8.8181,-3.3667,-1.8203,8.1786,-5.1269,1.7089,1
8.8115,-3.4731,-1.9435,11.0473,-5.7983,1.7700,1
8.8648,-3.6508,-2.0799,10.3759,-3.1127,0.7324,1
8.9886,-3.7621,-2.1254,8.5448,-1.4648,0.7934,1
8.9940,-3.5419,-2.1457,3.1127,-1.8920,0.5493,1
8.8025,-3.1244,-2.1960,1.5869,-3.8452,1.6479,1
8.7409,-3.3780,-2.2803,4.6386,-4.3334,5.0659,1
8.7254,-3.6305,-2.1870,5.1879,-2.6855,5.1879,1
8.8390,-3.8273,-2.0662,3.0517,-1.4038,3.5400,1
8.7493,-3.6209,-1.9908,0.5493,0.0000,2.6855,1
8.6937,-3.5425,-2.0859,1.7089,-1.2817,4.3334,1
8.7284,-3.7423,-2.1361,4.6386,-2.1362,4.6996,1
8.6883,-3.8297,-2.1667,7.2631,0.3051,3.4179,1
8.6841,-3.7555,-2.1589,8.4838,0.1220,3.7841,1
8.7930,-3.6993,-1.9740,7.9345,-2.1362,5.0659,1
8.9659,-3.5120,-2.0859,7.7514,-3.6621,4.8217,1
8.8420,-3.4666,-2.5555,6.5917,-2.1972,3.2958,1
8.8025,-3.5814,-2.5076,2.8076,4.2114,4.0283,1
8.6973,-3.5359,-2.1212,-1.0375,3.4789,5.5541,1
8.7182,-3.6143,-2.1661,-1.2817,2.5634,5.9203,1
8.7696,-4.0169,-2.1367,0.9765,2.9296,5.6152,1
8.8199,-3.9678,-1.9561,0.6713,2.3193,4.7607,1
8.7020,-3.7507,-1.9130,1.1596,-1.0986,5.3100,1
8.5998,-3.8961,-1.9010,3.6621,-2.3803,6.0424,1
8.6823,-4.1413,-1.8143,7.4462,-3.7231,5.2490,1
8.8091,-4.2131,-1.8065,10.1928,-6.8359,3.7231,1
8.7876,-4.0342,-2.1170,13.0004,-10.0707,1.7700,1
8.7098,-3.9290,-2.2851,10.8031,-8.2397,1.6479,1
8.6165,-3.9840,-2.2109,8.9721,-7.0800,1.7089,1
8.6291,-4.0887,-2.1349,8.2397,-4.3334,1.5869,1
8.7254,-4.0283,-2.0123,6.5917,-2.3803,0.9155,1
8.6955,-4.0002,-2.1266,3.9062,-1.0986,0.2441,1
8.7200,-3.9720,-2.1320,1.0375,0.2441,0.0610,1
8.7320,-3.8793,-2.2779,0.7324,-1.7700,0.7934,1
8.8420,-3.7615,-2.1631,-2.7465,0.7934,0.3662,1
8.8606,-3.7710,-2.3916,-5.6762,1.1596,0.6713,1
8.8193,-3.9786,-2.4323,-6.8359,0.3051,0.7934,1
8.7248,-4.0193,-2.2965,-7.5683,-2.7465,-1.1596,1
8.6841,-3.9104,-2.1996,-7.9955,-6.3476,-1.3427,1
8.7487,-3.8225,-1.9986,-6.6528,-8.7890,-1.5869,1
8.8223,-3.8602,-2.3024,-5.9814,-7.5073,-3.9672,1
8.6709,-3.8327,-2.4568,-4.9438,-6.8359,-5.1269,1
8.6674,-3.8697,-2.3533,-5.4321,-6.3476,-5.3100,1
8.6560,-3.6436,-2.4849,-5.2490,-7.1410,-5.1879,1
8.5902,-3.6173,-2.5339,-6.4697,-4.0893,-3.6010,1
8.6273,-3.5724,-2.3611,-8.4838,-3.1127,-2.2582,1
8.7230,-3.6125,-2.5651,-7.9345,-2.6855,-1.2817,1
8.7744,-3.6610,-2.6177,-7.8735,-1.8310,0.7324,1
8.6859,-3.7728,-2.5495,-7.7514,-3.1738,0.3662,1
8.5244,-3.8027,-2.4735,-6.4086,-5.5541,0.0000,1
8.4646,-3.8991,-2.5339,-2.2582,-7.0800,0.4272,1
8.5657,-4.1264,-2.3760,0.6713,-6.4697,-1.4038,1
8.5776,-4.0809,-2.4430,2.6245,-6.1645,-4.0283,1
8.4843,-3.9571,-2.4305,3.6010,-6.3476,-4.3945,1
8.4388,-3.7920,-2.3318,4.0283,-7.8124,-3.5400,1
8.5106,-3.7651,-2.4687,8.4228,-7.2631,-3.0517,1
8.5579,-3.9188,-2.5154,9.1552,-5.0659,-2.9296,1
8.5124,-3.8656,-2.3874,4.0893,-4.4555,-2.9296,1
8.5046,-3.7351,-2.4652,2.8686,-5.1269,-2.5634,1
8.6350,-3.9631,-2.5262,6.3476,-4.0283,0.3662,1
8.6668,-4.0313,-2.4538,5.8593,-1.2817,-1.5869,1
8.5046,-3.9864,-2.2342,2.3803,0.9155,-3.7231,1
8.5926,-3.8626,-2.2163,0.6713,-2.3803,-4.0893,1
8.6566,-3.7920,-2.4346,-1.4648,-2.5634,-2.5634,1
8.5447,-3.7393,-2.4586,-4.8828,-1.0986,0.4882,1
8.3467,-3.7866,-2.4412,-7.6293,0.0610,1.1596,1
8.4269,-3.9254,-2.4155,-8.1786,1.5869,2.3193,1
8.5770,-3.9972,-2.4789,-7.8735,3.4179,3.4179,1
8.4855,-4.1766,-2.5543,-7.0800,5.0659,2.4414,1
8.4897,-4.1222,-2.6309,-6.9579,7.9345,1.5869,1
8.4029,-4.0845,-2.7583,-8.2397,11.6576,0.2441,1
8.4568,-4.0301,-2.6333,-9.8876,11.1694,0.1831,1
8.4053,-4.1898,-2.4897,-10.3759,7.9345,0.9765,1
8.4071,-4.2759,-2.2319,-10.4980,5.3710,-1.9531,1
8.6249,-4.3405,-2.4574,-5.9814,0.9765,-3.7231,1
8.5956,-4.4165,-2.4311,-3.2958,-3.4179,-5.6152,1
8.5094,-4.1676,-2.3126,0.9765,-3.9672,-6.7748,1
8.4197,-4.0127,-2.4681,0.8544,-2.0141,-5.4931,1
8.5710,-3.8727,-2.4083,-1.7700,-1.5869,-5.0048,1
8.5405,-3.8811,-2.7308,-2.9907,0.7934,-4.8828,1
8.3587,-3.8075,-2.5375,-7.0190,5.5541,-2.3803,1
8.3808,-3.8327,-2.5190,-8.9111,5.8593,0.8544,1
8.6847,-4.0612,-2.7373,-8.6059,7.8124,-1.4038,1
8.7888,-4.4057,-2.6225,-8.6059,10.1928,-3.1127,1
8.4843,-4.3938,-2.3892,-7.5683,10.5590,-5.4321,1
8.3808,-4.2927,-2.4233,-6.7748,7.5073,-7.0800,1
8.4658,-4.0259,-2.7122,-6.5917,5.3100,-7.2021,1
8.5980,-3.8919,-2.8923,-4.8828,5.6152,-8.2397,1
8.7379,-3.7800,-2.6883,-3.6010,7.1410,-9.6435,1
8.6380,-3.6873,-2.6973,-1.8310,6.2866,-12.2069,1
8.6823,-3.7220,-2.6614,0.7324,7.4462,-13.7328,1
8.7266,-3.5174,-2.5034,0.4882,8.4838,-13.7328,1
8.7200,-3.3146,-2.4370,2.5024,10.5590,-13.0004,1
8.8815,-3.1992,-2.2061,3.2958,11.4745,-11.9018,1
8.9688,-3.0388,-1.9794,2.4414,10.1928,-11.1083,1
8.9671,-2.8630,-1.9453,1.4648,7.5073,-9.2773,1
9.0077,-2.7744,-1.8448,0.0000,5.8593,-8.3007,1
8.9712,-2.8055,-1.7509,-1.6479,3.4179,-6.1034,1
9.0687,-2.8037,-1.6887,-2.9296,1.6479,-3.6621,1
9.1238,-2.5214,-1.7976,-2.4414,1.4038,-2.2582,1
9.0735,-2.4376,-1.9022,-2.8686,2.3803,0.2441,1
9.0197,-2.4705,-1.8293,-4.0283,3.2958,2.0141,1
9.0496,-2.6656,-1.7856,-3.4179,3.2958,4.2114,1
9.1621,-2.8115,-1.7449,-1.4648,3.1738,4.3334,1
9.1058,-2.8875,-1.6749,0.1831,3.7841,4.5776,1
9.1710,-2.9659,-1.6552,4.3334,4.0283,4.2114,1
9.3200,-3.1872,-1.6689,7.5073,3.4179,3.1127,1
9.0041,-3.4558,-1.9746,11.7187,4.0893,0.0000,1
9.1070,-3.7447,-2.2187,11.4745,4.0283,-2.2582,1
9.0442,-3.5784,-2.2217,7.3852,1.4038,-6.1034,1
8.5609,-2.7948,-2.5776,1.4038,-4.3334,-7.0190,1
8.6578,-2.6590,-3.5479,-3.6621,-8.3617,-5.0048,1
8.4957,-2.7942,-3.3565,-7.5073,0.7934,-4.4555,1
8.3826,-2.9898,-2.9443,-4.2724,4.5776,1.1596,1
8.5896,-3.4378,-2.2893,0.3662,7.3242,4.0283,1
8.8689,-3.6747,-1.8406,6.8359,5.1879,6.3476,1
9.3014,-3.6628,-1.3621,9.2162,1.5869,5.1879,1
9.1746,-3.4103,-1.3495,12.6342,-2.7465,0.5493,1
9.0406,-3.0388,-1.4470,12.2069,-7.6904,0.0610,1
9.0478,-2.5956,-1.6935,9.8876,-10.1928,0.7324,1
9.1507,-2.6679,-1.7982,5.5541,-14.2821,1.4648,1
9.1651,-2.7918,-1.9369,2.3193,-12.6952,1.2207,1
9.1992,-2.8235,-1.9429,-2.8076,-9.8266,2.4414,1
9.1429,-2.8319,-1.8765,-7.6293,-4.7607,1.9531,1
9.0167,-3.0155,-1.8891,-10.0097,-1.6479,1.5869,1
9.0376,-3.0969,-1.8029,-12.5732,2.4414,1.3427,1
9.1447,-3.3188,-1.7515,-12.9394,2.0751,0.4272,1
9.1082,-3.3433,-1.7240,-11.9628,1.4648,-1.6479,1
9.0550,-3.3314,-1.9034,-10.3759,4.0283,-4.8217,1
9.0676,-3.3367,-2.0614,-7.6293,7.6904,-6.5307,1
9.2285,-3.4175,-2.0955,-3.4789,11.7797,-9.2162,1
9.2668,-3.3750,-2.2121,-1.4038,12.1459,-11.1694,1
8.8552,-3.6556,-2.3294,1.5869,11.7187,-14.1601,1
8.7062,-3.8452,-2.1966,6.5307,7.2631,-15.2587,1
8.2689,-3.4989,-2.4215,10.1318,3.1127,-16.5404,1
8.2187,-3.1519,-2.5447,18.6767,3.4179,-14.5263,1
8.7547,-3.1004,-2.6799,24.5971,4.5165,-11.3525,1
9.1405,-3.0197,-2.6279,29.6630,4.7607,-9.6435,1
9.1872,-2.8869,-2.6356,29.1747,2.4414,-9.8266,1
9.0053,-2.7696,-2.6727,26.4891,0.9765,-9.8266,1
9.0646,-2.7960,-2.7900,20.5077,0.7934,-9.1552,1
9.4073,-2.6584,-2.7044,14.0380,1.3427,-11.2304,1
9.0305,-2.3150,-2.3736,7.2021,3.9672,-11.2304,1
8.8929,-2.1505,-2.2121,0.7324,3.2348,-9.1552,1
8.9898,-2.1158,-1.8759,0.3662,4.8828,-6.5917,1
9.2518,-2.1003,-1.4913,0.9765,6.5917,-4.6996,1
9.2871,-1.8352,0.6334,-2.3193,7.1410,-4.7607,1
9.4408,-1.6366,0.5282,-2.9907,3.3569,-2.9907,1
9.6646,-1.6725,0.7932,-7.9955,2.8686,0.1831,1
10.0097,-1.5266,0.3744,-13.7328,5.2490,2.5024,1
9.5377,-1.5732,0.2446,-16.9066,3.6621,3.9062,1
9.3451,-1.6821,0.3810,-23.1322,4.2724,5.8593,1
9.5060,-1.9836,0.7238,-23.9257,3.3569,8.7280,1
9.5300,-2.0626,0.8566,-23.0101,2.0141,11.9628,1
9.3062,-2.0344,-1.1078,-23.2543,-4.6386,14.0380,1
9.1016,-2.1302,-1.5224,-26.3060,-7.6293,15.9301,1
9.1633,-2.2977,-1.8233,-28.5033,-9.7656,15.5639,1
9.2219,-2.7403,-2.0793,-28.1981,-9.8876,13.6108,1
9.2081,-2.7487,-2.2354,-26.4891,-8.6669,10.6811,1
9.2518,-2.8139,-2.0602,-24.4139,-6.2866,8.4228,1
9.1896,-2.9665,-1.8185,-19.7753,-5.6762,4.3334,1
9.1681,-3.0963,-1.8346,-13.9770,-7.6293,2.9296,1
9.2961,-3.0765,-2.0991,-9.4604,-5.8593,2.2582,1
9.1094,-2.9383,-2.2666,-8.1176,-6.2866,1.7700,1
8.5794,-2.6991,-2.9898,-13.0004,-9.8876,1.7089,1
9.2793,-2.9730,-3.7597,-22.0946,-9.5824,3.4789,1
9.6735,-3.5341,-3.5216,-40.9544,-18.8598,-7.0190,1
8.1655,-3.3649,-2.6225,-36.5599,-16.3573,-12.3290,1
7.4159,-4.0019,-2.2779,-16.9677,-14.5263,-5.3710,1
8.4239,-4.4745,-2.3102,1.6479,-10.9862,0.1220,1
9.2195,-3.7447,-2.5770,18.1884,-3.1127,-4.8217,1
9.1932,-3.0897,-2.3527,19.7753,0.0610,-13.7939,1
8.6560,-2.3988,-2.1349,17.5780,-7.2021,-13.4887,1
8.7128,-2.5591,-2.3647,8.3617,-27.5878,-7.6293,1
8.5728,-2.7499,-2.9198,4.2114,-37.4754,-4.2724,1
8.7912,-2.4340,-3.5820,8.8500,-31.8602,-2.8076,1
8.7062,-2.1804,-3.5114,11.7797,-21.1181,-1.5869,1
8.4209,-2.6057,-3.0293,10.5590,-17.2118,0.3051,1
8.5651,-2.6458,-2.7607,11.5966,-17.7611,2.6855,1
8.9353,-2.4759,-3.0795,13.6718,-19.8363,4.5776,1
9.0352,-2.3036,-3.1304,11.6576,-16.4794,2.8686,1
9.0711,-2.4544,-3.2297,6.7138,-10.4369,1.0375,1
9.3272,-2.5262,-3.0586,2.4414,-10.1928,2.8076,1
9.3888,-2.2426,-2.8899,1.3427,-14.6484,5.0048,1
9.2452,-2.0721,-2.8061,-1.8920,-10.6811,8.0566,1
9.1250,-2.1098,-3.2404,-6.2866,-11.0473,10.9862,1
8.8570,-2.2414,-3.0125,-3.6621,-3.7231,12.0849,1
8.5489,-2.6416,-3.1615,-3.9672,0.9765,12.0849,1
8.4281,-3.1375,-3.1280,0.6103,-8.9111,10.6200,1
8.4550,-3.2416,-3.2859,7.8124,-11.4745,5.6762,1
8.3772,-3.1202,-3.4785,11.9628,-6.8969,1.6479,1
8.3353,-3.0454,-3.6610,15.7470,-12.3901,-1.0986,1
8.5405,-2.9336,-3.6670,17.7001,-11.0473,-1.8920,1
8.6398,-2.8468,-3.6406,19.9584,-10.4980,-4.5165,1
8.6518,-2.7343,-3.6430,20.7518,-6.9579,-8.1786,1
8.5280,-2.9958,-3.6717,22.7050,-7.6293,-9.0942,1
8.5728,-3.2285,-3.7106,25.2684,-5.1269,-10.0707,1
8.5471,-3.0448,-3.6311,26.9164,-5.3100,-11.3525,1
8.5854,-2.8307,-3.6951,25.6957,-3.6621,-13.5497,1
8.5244,-2.9623,-3.8297,23.8646,-1.8310,-13.0614,1
8.4831,-2.9234,-3.7411,22.3998,0.5493,-13.6108,1
8.4233,-2.7182,-3.7435,17.6391,1.7700,-16.6015,1
8.4514,-2.6901,-3.7710,15.4418,1.8310,-16.6625,1
8.6057,-2.8331,-3.6311,12.9394,5.9814,-15.8690,1
8.7266,-2.8947,-3.5395,10.6200,8.3007,-16.4184,1
8.7433,-2.7529,-3.5569,8.3007,11.5356,-17.9442,1
8.7409,-2.3964,-3.5497,1.3427,13.6718,-15.4418,1
8.8372,-2.2648,-3.3720,-2.3193,11.1694,-8.4228,1
8.9007,-2.3910,-3.1854,-2.9296,6.7138,-1.7700,1
8.8761,-2.5890,-3.2560,-6.2255,3.5400,0.9155,1
8.7667,-2.6883,-3.1304,-7.2631,2.3803,2.3803,1
8.6841,-2.6739,-3.0705,-4.6386,1.8310,4.3945,1
8.6680,-2.6494,-3.0478,-4.3334,0.6103,5.8593,1
8.7212,-2.7146,-3.0741,-3.1738,-1.0375,5.2490,1
8.7182,-2.6727,-3.0424,-2.8686,-1.7700,5.3710,1
8.8851,-2.5142,-2.9521,-3.3569,-2.7465,7.5683,1
8.9581,-2.5334,-3.0945,-3.8452,-3.5400,8.8500,1
8.8492,-2.7343,-3.1453,-3.8452,-2.1972,8.6059,1
8.8695,-2.7996,-3.0801,-2.8076,0.9765,8.1786,1
8.8235,-2.8325,-3.0711,-1.9531,0.2441,7.9955,1
8.6949,-2.9240,-3.1441,-1.0986,-1.3427,8.3617,1
8.6799,-2.8468,-3.1860,0.7324,-2.8076,9.0331,1
8.6572,-2.7056,-3.3032,-2.3803,-2.0751,8.9111,1
8.6829,-2.7433,-3.2781,-4.3334,-1.5869,8.6669,1
8.6542,-2.8959,-3.2356,-5.4931,0.2441,8.6669,1
8.6572,-2.9144,-3.2452,-6.5307,0.1831,9.6435,1
8.6925,-2.8791,-3.2793,-7.2631,0.5493,10.4369,1
8.7074,-2.9521,-3.2871,-7.0190,0.3051,10.1928,1
8.6823,-2.9623,-3.1465,-7.6904,0.0000,8.6669,1
8.6069,-2.8127,-3.0095,-9.7045,0.6103,7.9955,1
8.6620,-2.4532,-2.8612,-11.7187,0.2441,7.0800,1
8.7146,-2.4448,-2.8534,-15.5028,0.1220,5.0048,1
8.9252,-2.7463,-2.6685,-17.1508,0.0610,2.8076,1
9.3254,-3.7005,-3.1477,-12.8173,1.3427,2.8686,1
9.4893,-4.0169,-3.1938,-8.1176,4.3945,2.0141,1
8.9210,-3.5126,-3.0771,-4.2114,8.9111,2.5024,1
8.4209,-3.4534,-2.8612,1.0375,11.9628,2.3803,1
8.4610,-3.2195,-2.8546,4.0893,13.0004,1.7089,1
8.5830,-3.4941,-3.0598,4.8828,14.5263,1.4038,1
8.5806,-3.4480,-3.0777,5.4931,11.2914,3.2958,1
8.4125,-3.3984,-3.2751,7.6293,8.6669,3.6010,1
8.4466,-3.2494,-3.2937,8.0566,6.2866,3.5400,1
8.3694,-3.2955,-3.3128,8.4838,6.3476,2.1972,1
8.2923,-3.5341,-3.1555,8.4228,7.3852,1.0986,1
8.3659,-3.7166,-3.1854,9.7045,9.0942,0.1831,1
8.4006,-3.7938,-3.0789,9.1552,9.7045,0.0000,1
8.3826,-3.6227,-3.0855,6.7748,6.7138,0.9765,1
8.3365,-3.2297,-2.9760,4.9438,4.6996,2.8076,1
8.5040,-3.0550,-2.9665,5.0048,4.3334,2.6855,1
8.6590,-3.1160,-2.7696,6.5917,5.3710,2.9296,1
8.8737,-3.4199,-2.7708,8.4228,6.1034,2.4414,1
9.2841,-3.1064,-2.8887,6.9579,6.5307,0.5493,1
9.2841,-2.7547,-2.8546,5.7372,8.4838,-3.0517,1
9.2997,-2.7505,-2.8725,4.5776,8.6059,-4.0893,1
9.1507,-3.1603,-2.7846,0.9765,9.5824,-5.9814,1
8.7104,-3.2374,-2.7038,-3.6010,8.1786,-6.1034,1
8.5316,-2.9563,-2.7385,-7.1410,4.5165,-2.8076,1
8.5136,-2.8923,-2.7774,-6.8359,2.3193,1.5869,1
8.6823,-3.2231,-2.7212,-6.7748,2.8076,3.2348,1
8.8049,-3.6125,-2.6057,-5.9814,4.2114,3.2958,1
8.9479,-3.7752,-2.5316,-4.0283,5.0659,2.1972,1
8.7810,-3.7609,-2.3641,0.9765,5.9203,0.7934,1
8.5334,-3.7848,-2.1726,2.8076,6.1034,0.3051,1
8.5172,-3.8644,-2.0662,6.3476,7.1410,-2.6245,1
8.8061,-3.8386,-1.8771,12.9394,10.0707,-6.3476,1
8.9706,-3.7100,-1.7485,17.7611,10.4369,-8.3007,1
8.7918,-3.5252,-2.6321,16.2963,7.8735,-5.7372,1
9.4588,-3.3206,-2.3114,7.1410,12.0849,-13.0004,1
8.4406,-2.5363,-2.0578,4.2114,7.0800,-15.7470,1
8.2325,-2.8223,-1.7365,2.5634,0.9155,-7.5683,1
8.9587,-3.2159,-2.1607,6.2866,0.9155,-2.6245,1
9.3140,-2.7433,-2.2971,7.2021,0.6713,-2.3193,1
9.1854,-2.5956,-2.3084,-1.7089,-2.0141,-6.7748,1
9.0221,-2.8049,-2.0470,-7.0800,-1.8920,-7.5683,1
9.1166,-2.9144,-1.8580,-9.8266,-1.5869,-6.5917,1
8.9353,-2.8283,-1.9734,-10.4369,0.7324,-5.9203,1
8.9754,-2.9706,-2.3048,-8.0566,-1.4038,-2.9296,1
9.0006,-3.0616,-2.4568,-6.0424,-4.0283,-1.7089,1
8.8899,-3.3068,-2.5334,-3.7841,-7.3242,-2.9296,1
9.0382,-3.5641,-2.5004,2.8076,-9.6435,-6.4697,1
8.9431,-3.4929,-2.6237,6.7748,-8.4228,-9.4604,1
8.8426,-3.0861,-2.5495,9.3993,-4.0283,-11.3525,1
8.8067,-2.8181,-2.5734,8.1176,0.3051,-9.6435,1
8.7828,-2.3922,-2.6805,3.9672,2.0141,-7.4462,1
8.8743,-2.4299,-2.5854,-4.4555,6.2866,-4.6386,1
9.0448,-2.4514,-2.5932,-12.7563,12.2069,-2.8076,1
9.1106,-2.3533,-2.5794,-19.5922,14.7094,0.5493,1
8.9234,-2.2959,-2.3670,-29.7240,20.3856,2.8686,1
9.0963,-2.5292,-2.1230,-32.8978,21.1791,5.2490,1
9.1884,-2.7828,-2.0249,-34.8509,22.0946,5.3710,1
9.0442,-2.6775,-1.9190,-35.8275,19.0429,4.3945,1
9.0448,-2.5064,-1.8777,-33.7523,17.2118,4.3334,1
9.2321,-2.6015,-1.8628,-32.5926,14.8315,3.1127,1
8.9449,-2.4963,-1.7736,-32.1044,12.3901,1.1596,1
9.1884,-2.8839,-1.7569,-29.0526,6.2255,1.6479,1
9.1896,-3.0077,-1.6199,-22.3998,5.7983,-2.8686,1
8.8408,-3.3672,-1.1922,-15.9301,2.6855,-5.6762,1
8.8833,-3.1932,-1.1246,-2.5024,-3.4179,-2.9907,1
9.5563,-2.5686,-1.3268,5.3100,-4.3334,-2.0751,1
9.6179,-1.7629,-1.8783,7.9345,-2.1972,-3.6010,1
9.4008,-1.5888,-2.1320,1.0986,1.0375,-2.9296,1
9.4390,-2.1104,-2.1074,-3.9062,3.3569,-3.4179,1
9.3535,-2.0901,-2.3605,-5.8593,2.7465,-4.0893,1
9.3373,-2.5160,-2.4418,-5.4321,0.4882,-4.5776,1
9.2775,-2.6297,-2.4287,-2.3803,-1.7700,-6.1034,1
9.4169,-2.2707,-2.4568,2.1362,0.2441,-6.7138,1
9.3314,-1.6462,-2.2606,2.1972,0.2441,-5.7372,1
9.0831,-1.4356,-2.1302,-1.0375,-2.0141,-4.7607,1
8.9688,-1.3986,-2.0285,-1.6479,-3.8452,-2.6855,1
9.0556,-1.5326,-2.1553,0.8544,-7.2021,0.7934,1
9.1902,-1.7258,-2.2450,-2.5024,-8.3617,2.1362,1
9.2392,-2.0051,-2.2666,-1.7089,-8.3617,2.6245,1
9.4959,-2.3120,-2.1074,-2.9907,-7.9955,3.4179,1
9.3164,-2.5411,-2.2390,-3.7841,-7.8124,2.6855,1
9.2147,-2.8570,-2.3222,-5.0048,-5.5541,0.0610,1
9.2129,-2.9706,-2.1062,-3.0517,-6.1645,-3.8452,1
9.0634,-2.4640,-2.0440,1.5869,-7.8124,-7.0190,1
9.1148,-1.9866,-2.3635,6.1034,-6.7748,-6.6528,1
9.3355,-1.5469,-2.4000,7.2631,-3.9062,-5.6762,1
9.6945,-1.3046,-2.1762,7.6293,0.2441,-4.0283,1
9.6125,-1.0875,-2.2247,5.6152,1.6479,-2.3803,1
9.4031,-1.3836,-2.7409,1.9531,0.1220,0.3051,1
9.3290,-1.8424,-2.9150,-6.7748,1.1596,0.5493,1
9.4337,-2.4017,-2.7487,-11.1083,0.1831,-3.8452,1
8.9048,-2.8002,-2.2360,-11.7187,-1.2817,-10.9252,1
8.4604,-2.9856,-1.8849,-1.0375,-6.4697,-10.8031,1
8.8426,-3.1082,-2.0572,7.9955,-8.9111,-10.3149,1
9.0167,-2.8977,-2.2522,18.3104,-10.9862,-11.3525,1
9.2303,-2.5022,-2.5339,21.7894,-12.0238,-13.5497,1
8.8319,-2.5262,-2.4089,24.5360,-11.2304,-16.1132,1
8.7828,-2.4574,-2.5483,27.5878,-13.0614,-15.5028,1
8.9724,-2.4035,-2.7499,31.6161,-15.3808,-13.8549,1
9.1603,-2.4161,-2.9060,34.8509,-14.8925,-12.6342,1
9.1710,-2.4107,-3.0753,33.5692,-15.0146,-13.0004,1
9.0275,-2.2624,-3.0089,32.1044,-10.3759,-10.2538,1
9.0406,-2.1840,-3.0083,33.7523,-3.5400,-4.7607,1
9.1172,-2.1469,-2.9820,32.9589,0.3051,-2.0141,1
9.1567,-1.9884,-2.9060,29.3578,-1.0986,1.6479,1
8.6195,-1.9004,-2.6434,25.6957,-1.2207,1.8920,1
8.6380,-2.2073,-2.3880,24.8412,-1.8310,1.5869,1
8.9078,-2.4759,-2.2815,25.3905,-3.4179,-1.1596,1
9.1334,-2.5710,-2.2522,26.2450,-3.2348,-4.4555,1
9.2745,-2.4568,-2.0392,26.9774,-2.3193,-8.6059,1
9.3505,-2.2857,-2.0835,27.4047,0.6103,-13.0004,1
9.2243,-2.0440,-1.8646,25.5736,4.0893,-14.7704,1
9.1118,-2.0045,-1.7826,23.6815,7.6904,-13.9770,1
9.1543,-1.7515,-1.5541,17.9442,7.5683,-11.1083,1
9.3248,-1.6492,-1.8077,7.6904,9.1552,-5.6152,1
9.7262,-1.7156,-2.2103,2.5024,11.9018,-1.8920,1
9.7064,-2.0099,-2.1720,1.6479,3.4789,0.9765,1
9.5718,-2.1499,-2.0416,-1.7089,8.6059,-1.1596,1
9.4456,-2.7493,-2.1361,-2.6855,10.3759,0.1831,1
9.3236,-2.7409,-1.7599,1.1596,1.5869,5.4321,1
9.3038,-2.2731,-1.8496,3.9672,1.2817,7.6904,1
9.0628,-1.6618,-1.8520,0.9155,3.1738,8.0566,1
9.0586,-1.5002,-1.6677,-10.2538,2.8076,9.3993,1
8.8785,-1.9256,-1.4171,-16.2353,2.6245,10.1928,1
9.2524,-2.2007,-1.3674,-24.4750,0.4272,10.7421,1
9.4079,-2.3060,-1.4877,-27.8929,-1.3427,10.4980,1
9.5928,-2.4329,-1.6462,-28.6864,0.1831,9.8266,1
9.4701,-2.5579,-1.7395,-27.7709,7.2631,5.8593,1
9.4121,-2.8582,-1.8149,-25.6347,8.1176,4.7607,1
8.9736,-2.7828,-1.6163,-20.5077,6.8359,2.6245,1
8.7960,-2.7631,-1.5367,-16.0522,7.0800,0.3662,1
8.6010,-2.4125,-1.5427,-15.6249,5.1879,-2.9296,1
9.3487,-2.4801,-2.0709,-11.4135,4.6386,-2.3193,1
9.8799,-1.4356,-2.1535,-18.6767,0.6103,-1.6479,1
9.5940,-1.7844,-2.5788,-18.2494,1.0986,-3.4789,1
9.2697,-1.9669,-2.3820,-25.6347,1.7700,1.5258,1
9.3583,-2.4161,-2.2025,-27.2216,0.9155,6.8969,1
9.3984,-2.6440,-2.2947,-26.0009,2.9296,9.6435,1
9.0035,-2.3922,-2.3665,-30.4564,-1.0375,10.2538,1
8.7242,-2.3377,-2.4771,-30.5785,2.0751,8.8500,1
8.6614,-2.3150,-2.6518,-29.9681,0.6713,8.6059,1
8.7391,-2.3551,-2.9401,-30.2123,-4.7607,9.5824,1
8.8241,-2.1481,-2.9371,-32.7757,-5.9203,10.7421,1
8.8019,-2.3198,-2.8941,-34.4237,-5.5541,11.1083,1
8.7463,-2.5220,-3.0412,-34.1795,-4.2114,13.6718,1
8.6350,-2.6775,-3.1555,-30.8226,-3.6010,15.0146,1
8.5005,-2.5926,-3.2189,-29.7850,-1.9531,14.4042,1
8.5579,-2.4281,-3.2895,-33.4471,1.8310,12.8173,1
8.3766,-2.2947,-3.2231,-36.1327,3.9062,13.4887,1
8.7463,-2.1768,-3.4851,-39.5506,6.4697,20.0194,1
8.9300,-2.1409,-3.3804,-40.4662,10.7421,28.0760,1
8.9007,-2.4765,-2.6991,-39.1844,13.7939,28.0760,1
8.9485,-2.7451,-2.3479,-34.2406,15.7470,21.9725,1
9.4582,-2.7816,-1.8113,-29.0526,16.2353,17.3949,1
9.9601,-2.5603,-1.9100,-17.8832,14.7094,9.6435,1
10.0444,-2.2671,-2.1158,-11.8407,6.2255,4.5165,1
9.8512,-1.6259,-2.4041,-10.9862,0.4882,0.6103,1
9.7663,-1.5026,-2.4089,-10.4369,0.4882,-1.5869,1
9.4869,-1.8113,-2.2630,-10.4369,0.8544,-2.6855,1
9.2111,-1.7138,-1.9842,-11.5356,1.8920,-3.7231,1
8.9575,-1.4428,-1.9310,-9.7045,0.4882,-4.4555,1
9.1082,-1.8335,-2.2283,-4.4555,-1.0375,-3.7231,1
9.1483,-2.4424,-1.9657,7.3852,4.3945,-2.1972,1
9.1836,-2.7996,-1.6851,19.5312,6.5917,-2.8076,1
9.0400,-2.8540,-2.6279,27.5267,10.0097,-2.8686,1
9.0622,-3.3003,-4.2586,23.9867,12.5121,1.6479,1
10.7784,-3.1627,-2.8139,6.8969,16.1742,-8.4838,1
7.5912,-1.7300,-1.0761,7.8735,7.8735,-26.6722,1
6.9828,-2.2480,-1.4015,24.5971,-10.0097,-4.8217,1
9.2057,-3.3900,-2.2043,37.8417,-10.5590,3.5400,1
9.3266,-2.6303,-2.8145,48.3397,-2.3803,2.9296,1
9.0472,-1.6181,-3.3577,39.4896,-2.8076,0.9765,1
8.9772,-1.9076,-3.0933,23.0101,-4.5165,2.5634,1
9.4863,-2.9353,-2.8295,13.7328,-5.8593,2.1972,1
9.0783,-2.9533,-2.3647,13.3666,-5.5541,-1.2817,1
9.0448,-2.6895,-2.2534,14.9535,-2.2582,-3.2958,1
8.8624,-2.2827,-2.0715,13.1835,-3.3569,0.6103,1
8.6715,-2.2677,-2.0745,7.5073,-10.8642,6.2866,1
8.8755,-2.6237,-2.2983,3.4179,-10.4369,9.9487,1
9.0412,-2.9599,-2.6105,3.1127,-5.4931,8.4838,1
9.0251,-2.8851,-2.6063,3.6010,0.1220,5.0048,1
9.0460,-2.8510,-2.4071,7.1410,2.4414,5.3710,1
8.7421,-3.1872,-1.9483,14.4042,2.0141,7.7514,1
8.9395,-3.0346,-1.8939,20.7518,-1.4038,4.8828,1
9.4151,-3.1094,-1.9465,24.4139,-1.6479,1.7700,1
9.4570,-2.9318,-1.9651,26.0009,-2.9296,-2.2582,1
9.2644,-2.7487,-2.0434,25.7567,-3.8452,-4.3945,1
9.1501,-2.5776,-2.1188,23.3153,-3.8452,-3.9672,1
9.0867,-2.4777,-2.0919,19.3480,-2.5024,-2.8686,1
9.1507,-2.4167,-2.0267,16.8456,-2.6245,-2.8686,1
9.2159,-2.4873,-2.0685,12.6952,-2.0751,-2.6245,1
9.1896,-2.5794,-1.9902,10.3759,-2.1972,-2.8686,1
9.1531,-2.5567,-2.0267,7.0800,-3.8452,-2.5024,1
9.1639,-2.5435,-2.0374,5.0659,0.9765,-1.4038,1
9.1357,-2.5573,-2.0656,3.1127,0.1831,-1.8920,1
9.1351,-2.5339,-2.1463,1.0375,1.3427,-2.0751,1
9.1543,-2.6303,-2.0201,-1.1596,1.8920,0.7324,1
8.9964,-2.8301,-1.9345,-2.2582,1.5258,-1.6479,1
9.0382,-2.8683,-1.9220,-2.5634,0.3662,-1.3427,1
9.1154,-3.0317,-1.9052,-1.7700,0.0610,0.7934,1
8.9940,-3.0376,-1.8299,0.4272,0.7324,0.7934,1
8.9832,-3.1537,-1.8634,2.2582,-1.9531,-1.0986,1
8.9958,-3.1788,-1.9567,5.4321,-2.6245,-1.5869,1
8.9413,-3.0556,-1.9884,8.4228,-2.5634,-2.0751,1
9.0472,-2.9539,-2.1355,9.9487,-1.8310,-1.8310,1
9.0167,-2.8504,-2.2061,9.3993,0.6713,-1.8920,1
9.1094,-2.6793,-2.1200,7.3852,2.8076,-1.5258,1
9.2243,-2.6560,-2.0865,3.9062,3.9672,0.9155,1
9.1950,-2.6153,-2.0392,0.8544,4.5165,0.2441,1
9.1621,-2.5375,-1.9956,-3.5400,4.2724,0.5493,1
9.1046,-2.5549,-2.0195,-7.2021,5.0048,0.5493,1
9.0149,-2.7236,-1.9716,-9.7656,4.3334,1.1596,1
9.0382,-2.6805,-1.9549,-12.3901,3.6010,2.1972,1
9.0939,-2.6847,-1.9519,-12.2069,1.5869,3.9672,1
9.0873,-2.7577,-1.9184,-12.3901,0.8544,3.8452,1
8.9988,-2.8731,-1.9148,-12.3290,0.3662,3.7841,1
9.0729,-2.9581,-1.9788,-10.4369,0.9155,3.6621,1
9.1585,-2.9868,-2.0781,-8.7890,0.0610,3.7231,1
9.0957,-2.9802,-1.9866,-7.8735,1.2207,2.4414,1
8.9629,-2.9617,-1.9130,-7.3852,1.1596,1.9531,1
9.1369,-3.0233,-1.8532,-5.5541,1.1596,1.8920,1
9.1477,-2.9952,-1.8646,-3.9062,0.0610,1.5258,1
9.0006,-3.0029,-1.8867,-3.0517,-1.2207,1.5258,1
8.9342,-3.0137,-1.9118,-1.7089,-1.5258,2.0141,1
8.9479,-3.1286,-1.9968,0.4882,-2.0751,2.5024,1
8.9994,-3.1962,-1.9728,1.4038,-1.2817,2.0141,1
9.0287,-3.1304,-1.9172,3.7841,-3.4789,2.3193,1
8.9814,-3.0556,-2.1230,5.4321,-3.3569,2.1362,1
9.0861,-2.9312,-2.1870,5.3710,-1.1596,1.6479,1
9.0999,-2.9264,-2.1074,5.1879,0.9765,1.5869,1
9.0418,-2.9353,-2.0895,5.1879,-1.9531,1.3427,1
8.9503,-2.9605,-2.0572,5.3710,-3.4789,0.9765,1
8.8971,-2.9742,-2.0673,5.9203,-3.7841,1.4648,1
9.0586,-2.9078,-2.0703,7.1410,-2.3803,2.6855,1
9.0915,-2.9264,-2.1044,8.3007,-1.4648,2.8076,1
9.0670,-2.9066,-1.9256,8.1786,0.6713,2.4414,1
9.0957,-2.8384,-1.8975,8.5448,-1.2207,2.5634,1
9.1704,-2.8486,-1.9064,8.3007,-2.6855,2.6245,1
9.1429,-2.9144,-2.0476,7.5073,-4.1503,2.3193,1
8.9706,-2.9647,-2.2241,6.5917,-3.2348,1.8310,1
8.9934,-3.0388,-2.2989,6.4086,0.9765,1.2207,1
8.9700,-2.9736,-2.1774,5.8593,2.8076,1.7089,1
8.9946,-2.9629,-1.8813,5.7983,1.6479,2.0751,1
9.0376,-2.9712,-1.7826,6.2255,0.3051,2.5024,1
9.2213,-2.8995,-1.8424,5.7372,-1.9531,2.5634,1
9.2506,-2.9180,-1.9501,3.1127,-1.5258,2.5634,1
9.2985,-2.9778,-1.9734,-1.7700,0.6713,0.6103,1
9.3038,-3.0616,-2.0386,-5.2490,-1.4038,-1.0375,1
9.1274,-3.1052,-2.1296,-7.5683,-3.6621,-1.5258,1
8.7535,-3.0789,-2.2396,-8.0566,-2.6855,-1.4038,1
8.6751,-2.9587,-2.3874,-8.6059,-1.7089,1.0375,1
8.7104,-3.0233,-2.4167,-8.4228,0.4882,2.8076,1
8.7098,-3.2548,-2.3802,-7.6293,2.1362,2.9296,1
8.7188,-3.3379,-2.3318,-5.4931,2.3193,3.4179,1
8.7607,-3.4295,-2.3599,-3.2958,0.7324,3.0517,1
8.7828,-3.6203,-2.3527,-2.3803,-1.3427,2.3803,1
8.9120,-3.5413,-2.0973,0.4272,-5.4931,3.1738,1
8.9318,-3.4779,-2.2582,2.5634,-8.5448,2.7465,1
8.8761,-3.4169,-2.3694,1.9531,-8.7280,1.4038,1
8.7756,-3.2781,-2.4275,0.3051,-7.6293,0.9155,1
8.8402,-3.2817,-2.4125,-1.1596,-4.4555,1.5869,1
8.9234,-3.2829,-2.4664,-2.9296,-2.9296,1.9531,1
8.8803,-3.4522,-2.5004,-5.1269,-2.0141,1.4648,1
8.8528,-3.5072,-2.4693,-8.0566,-1.4648,0.3662,1
8.7296,-3.4713,-2.3964,-8.2397,0.7324,0.0610,1
8.6668,-3.3990,-2.2791,-8.1786,0.4882,0.6103,1
8.6739,-3.4007,-2.3641,-7.4462,0.1831,1.9531,1
8.7571,-3.4947,-2.3880,-6.5917,0.9155,2.6245,1
8.6721,-3.5389,-2.3060,-5.1879,1.5258,3.2348,1
8.6590,-3.5742,-2.3216,-3.8452,0.4272,3.3569,1
8.7984,-3.6693,-2.3377,-2.9296,0.1831,3.2958,1
8.8450,-3.6903,-2.3371,-1.8310,0.3051,2.8686,1
8.8043,-3.6544,-2.3204,-1.2207,-1.0986,2.4414,1
8.7870,-3.6317,-2.3623,0.8544,-2.0751,1.5258,1
8.7302,-3.6622,-2.3509,0.0000,-2.1362,1.5258,1
8.7738,-3.6352,-2.3060,0.8544,-2.5634,1.8920,1
8.8073,-3.6011,-2.2337,2.6855,-2.3193,2.2582,1
8.7696,-3.4713,-2.1667,3.7231,-1.9531,1.9531,1
8.8283,-3.4995,-2.2378,3.9062,0.6713,1.0986,1
8.8384,-3.4953,-2.3078,4.0893,0.4882,0.4882,1
8.8223,-3.5336,-2.2983,4.3945,0.9765,0.1831,1
8.7846,-3.5533,-2.3395,4.3945,0.7324,0.3662,1
8.7409,-3.5276,-2.3479,4.2114,0.7324,0.6713,1
8.7529,-3.4791,-2.2558,4.2114,2.0141,0.9155,1
8.7505,-3.4672,-2.2666,5.1879,1.7089,0.8544,1
8.8067,-3.4977,-2.2438,6.7748,2.8686,-1.2817,1
8.7894,-3.5551,-2.3371,5.8593,3.3569,-1.5869,1
8.8253,-3.4582,-2.1846,5.9814,2.5024,-1.6479,1
8.8522,-3.4444,-2.1523,7.5683,0.9765,-1.6479,1
8.8199,-3.4049,-2.1601,8.0566,0.7934,-1.7089,1
8.8073,-3.4229,-2.1918,8.1786,0.6713,-1.7700,1
8.8534,-3.3978,-2.1373,7.8735,0.1220,-1.5869,1
8.9216,-3.3786,-2.1068,7.7514,0.3051,-1.4648,1
8.8893,-3.3583,-2.1146,7.2631,-1.4648,-1.3427,1
8.8785,-3.3475,-2.1559,6.5307,-1.4648,-1.5869,1
8.8953,-3.3188,-2.1349,6.5307,0.5493,-1.7700,1
8.9264,-3.2787,-2.1224,5.5541,0.1831,-1.8310,1
8.8995,-3.2356,-2.0913,5.0659,0.4272,-1.5258,1
8.8905,-3.2482,-2.0865,4.5165,0.1220,-1.3427,1
8.8899,-3.2638,-2.1643,3.6010,0.5493,-1.2817,1
8.9294,-3.2673,-2.1834,3.2348,0.6713,-1.4648,1
8.9240,-3.2638,-2.1667,2.5024,0.0610,-1.4648,1
8.9629,-3.2297,-2.0841,1.7089,0.3662,-1.2817,1
8.9730,-3.2321,-2.0775,0.7324,-1.2207,-1.1596,1
8.9431,-3.2775,-2.1451,0.3051,-1.7700,-1.3427,1
8.8606,-3.3068,-2.1140,0.1220,-2.0141,-1.4648,1
8.8402,-3.2949,-2.1074,0.0610,-1.8920,0.6713,1
8.8923,-3.2596,-2.1517,0.3051,-1.8310,0.3051,1
8.9150,-3.2303,-2.1726,0.6103,-1.2207,0.0000,1
8.9138,-3.2512,-2.1547,0.9155,0.0610,0.0610,1
8.9437,-3.2656,-2.1541,-1.1596,0.1831,0.0610,1
8.9102,-3.2769,-2.1242,-1.6479,0.0000,0.2441,1
8.8923,-3.2919,-2.1481,-1.7089,0.7324,0.2441,1
8.8995,-3.3116,-2.1553,-1.4648,0.6103,0.1220,1
8.9060,-3.3140,-2.1816,-1.0986,0.5493,0.0610,1
8.8737,-3.2889,-2.1924,0.7934,0.6713,0.1220,1
8.8863,-3.2428,-2.2241,0.6713,0.6103,0.0610,1
8.9120,-3.2626,-2.2097,0.6713,1.0986,0.1831,1
8.9395,-3.3188,-2.2444,1.4648,2.1972,-1.0986,1
8.9641,-3.2039,-2.1966,0.9765,2.8076,-1.0986,1
8.8630,-3.1944,-2.1068,1.4038,2.5634,-1.0986,1
8.8713,-3.2213,-2.1038,2.1362,1.4038,0.0610,1
8.8815,-3.3020,-2.2522,2.3803,0.7934,0.5493,1
8.9066,-3.3714,-2.2731,1.7700,0.8544,0.4272,1
8.8935,-3.3870,-2.2193,0.9765,0.7324,0.0000,1
8.9138,-3.3667,-2.1894,1.2207,0.4882,0.1220,1
8.9485,-3.2452,-2.1942,1.1596,-1.5258,0.7324,1
8.9234,-3.2171,-2.1649,0.7324,-1.3427,-1.0986,1
8.9186,-3.2213,-2.1146,0.0000,-1.2207,-1.1596,1
8.9318,-3.2446,-2.0925,-1.3427,-1.7089,0.5493,1
8.8558,-3.2961,-2.1738,-2.0751,0.6713,0.2441,1
8.8073,-3.2943,-2.1894,-3.5400,0.4882,0.9765,1
8.8402,-3.3140,-2.1738,-4.0893,1.8920,2.3193,1
8.9377,-3.2560,-2.1678,-3.5400,2.1972,2.5634,1
8.8929,-3.2650,-2.2211,-3.7841,3.6621,1.8310,1
8.9168,-3.2410,-2.2271,-3.4789,4.2114,1.9531,1
8.9449,-3.3140,-2.1732,-3.9062,3.7231,1.7089,1
8.9796,-3.3158,-2.1619,-4.5776,3.3569,0.9155,1
8.9282,-3.3278,-2.1134,-4.7607,2.3193,0.3051,1
8.9090,-3.3523,-2.1230,-5.5541,0.5493,0.5493,1
8.9186,-3.4151,-2.1439,-5.6152,0.5493,-1.1596,1
8.8079,-3.5078,-2.1792,-4.9438,2.2582,-1.8920,1
8.7601,-3.4342,-2.2121,-5.4321,3.0517,-1.2207,1
8.7200,-3.4187,-2.1936,-5.1879,4.0283,0.2441,1
8.7798,-3.4540,-2.0979,-4.8217,3.3569,0.9155,1
8.8253,-3.5168,-2.0697,-4.7607,3.0517,1.1596,1
8.8002,-3.5928,-2.0542,-4.7607,0.8544,0.7324,1
8.7978,-3.5653,-2.0751,-4.5776,0.6103,0.7934,1
8.8564,-3.5551,-2.0709,-4.2724,-1.4648,0.9765,1
8.8935,-3.6191,-2.0859,-4.0893,-1.5258,1.0375,1
8.7834,-3.5605,-2.1218,-4.2114,-1.0375,0.6713,1
8.7661,-3.5012,-2.0668,-4.9438,0.2441,1.0986,1
8.7996,-3.5276,-2.1284,-3.9672,0.3662,1.6479,1
8.8205,-3.6388,-2.1487,-3.9672,0.7324,1.6479,1
8.8707,-3.5653,-1.9794,-4.4555,0.3662,1.7700,1
8.7756,-3.6831,-2.1104,-3.2958,0.9765,1.2817,1
8.8265,-3.6610,-2.0769,-2.6245,0.7324,0.7934,1
8.8289,-3.6358,-2.0530,-1.2207,0.7324,0.3662,1
8.8043,-3.6550,-2.0829,0.4882,0.7934,0.1831,1
8.8163,-3.6293,-2.0865,0.1220,0.9765,0.1220,1
8.8199,-3.6155,-2.1230,0.9155,0.6103,0.3662,1
8.8157,-3.5174,-2.0662,0.8544,0.4882,0.4272,1
8.8624,-3.5024,-2.0512,0.7934,0.1220,0.4272,1
8.8259,-3.4911,-2.1870,0.1220,0.1220,0.3662,1
8.8588,-3.4827,-2.1822,-1.9531,0.6713,0.1831,1
8.8337,-3.4719,-2.1373,-4.0893,1.6479,0.0000,1
8.8570,-3.3744,-2.0590,-5.0659,2.1362,0.2441,1
8.8642,-3.4109,-2.0949,-5.6152,2.8686,0.5493,1
8.8247,-3.4504,-2.0727,-6.1645,3.1127,0.6713,1
8.8851,-3.4959,-2.0985,-6.9579,3.2958,0.5493,1
8.8600,-3.4773,-2.0853,-7.3852,3.5400,0.2441,1
8.8432,-3.4839,-2.1110,-7.3852,3.1738,0.0610,1
8.8576,-3.4642,-2.1385,-6.8359,3.1127,0.0610,1
8.8809,-3.4265,-2.1188,-6.5917,3.1127,0.0000,1
8.8235,-3.3714,-2.1379,-6.6528,3.0517,0.2441,1
8.8229,-3.4109,-2.1649,-6.8359,2.8076,0.1831,1
8.8289,-3.4229,-2.1475,-6.2255,2.5024,0.1220,1
8.8941,-3.4342,-2.1308,-5.3100,2.1362,0.1220,1
8.8654,-3.4504,-2.1284,-4.4555,1.6479,0.5493,1
8.8360,-3.4247,-2.1547,-3.2348,1.4038,-1.0375,1
8.8348,-3.4002,-2.1343,-2.1362,1.0986,-1.0986,1
8.8971,-3.3415,-2.1355,-1.4038,1.0375,-1.0986,1
8.9258,-3.3200,-2.1236,0.4272,1.4648,-1.3427,1
8.9198,-3.3236,-2.1164,0.0000,1.0986,-1.4038,1
8.8498,-3.3212,-2.0835,0.4272,0.2441,-1.5869,1
8.9007,-3.2656,-2.1290,-1.0986,0.1220,-1.5869,1
8.9455,-3.2506,-2.0614,0.8544,0.0000,-1.4038,1
8.9796,-3.1669,-2.0333,-1.5869,0.3662,-1.2207,1
8.9952,-3.1082,-2.1367,-1.7700,1.2207,-1.2207,1
8.8983,-3.1489,-2.2438,-4.1503,3.1738,-1.6479,1
8.9940,-3.0993,-2.0213,-7.5073,2.6855,0.1831,1
8.9587,-3.1004,-2.1003,-7.4462,2.4414,0.0000,1
8.9808,-3.0915,-2.1248,-8.4838,3.4179,0.4882,1
8.9318,-3.0885,-2.0961,-9.3993,3.6010,0.7324,1
8.9204,-3.1429,-2.1481,-9.7656,3.0517,1.4038,1
8.9545,-3.2129,-2.1266,-9.2162,2.0751,1.5869,1
8.9353,-3.2673,-2.1469,-8.3617,1.4038,1.0986,1
8.9551,-3.2470,-2.1840,-6.7748,0.7934,0.3662,1
8.8875,-3.2315,-2.1445,-5.4321,0.6103,0.0610,1
8.8965,-3.2165,-2.1894,-2.4414,0.6713,0.0000,1
8.9066,-3.2727,-2.2127,0.0610,-2.0141,0.0000,1
8.9120,-3.3056,-2.2480,1.6479,-2.4414,0.7934,1
8.8959,-3.3158,-2.1810,4.5776,-2.8076,-1.7700,1
8.8701,-3.2847,-2.1762,6.4697,-3.0517,-2.0751,1
8.8953,-3.3164,-2.1517,9.2773,-3.8452,-2.0141,1
8.9246,-3.3266,-2.1643,11.1083,-4.5776,-2.8076,1
8.9593,-3.2829,-2.1475,11.4745,-5.1269,-3.3569,1
8.9306,-3.2632,-2.1379,11.5966,-5.2490,-3.7231,1
8.9700,-3.2470,-2.1134,10.8642,-5.0048,-3.9672,1
8.9545,-3.2075,-2.1003,8.1786,-4.6996,-4.2724,1
8.9114,-3.1836,-2.1134,5.0048,-3.1738,-3.9672,1
8.8701,-3.2045,-2.0901,3.1738,-2.2582,-3.5400,1
8.8749,-3.2099,-2.0997,0.9155,0.7324,-2.3803,1
8.8600,-3.2572,-2.1337,0.6713,1.2817,-1.7089,1
8.8402,-3.2578,-2.1182,-1.5258,1.7700,-1.0986,1
8.8169,-3.2997,-2.0961,-1.7700,1.5258,0.4882,1
8.8815,-3.3948,-2.0787,-1.4648,0.7934,0.3662,1
8.8761,-3.3266,-2.1104,0.1220,0.3051,0.0610,1
8.8887,-3.1884,-2.1655,1.5869,0.9765,0.9765,1
8.8899,-3.1351,-2.2444,2.8076,0.9765,1.1596,1
8.9216,-3.1902,-2.2157,4.1503,0.4882,0.0610,1
8.9377,-3.2386,-2.2384,4.8828,0.9765,0.7934,1
9.0287,-3.1680,-2.2749,5.6762,-2.0751,-1.8310,1
8.9700,-3.1543,-2.3114,6.4697,-2.5024,-2.9296,1
9.0006,-3.1226,-2.2474,6.7138,-1.8310,-3.4789,1
9.0029,-3.1818,-2.3629,8.4228,-1.1596,-5.2490,1
9.1046,-3.3176,-2.4861,8.6059,0.3051,-6.9579,1
9.0610,-3.1477,-2.6350,5.7372,1.0986,-8.7890,1
8.9150,-3.1399,-2.6422,5.1269,2.8076,-11.1694,1
8.7930,-3.1208,-2.5477,5.9814,3.7231,-11.4135,1
8.9706,-3.2297,-2.4179,10.5590,3.6010,-12.2680,1
9.0843,-3.2159,-2.2229,15.9911,3.4789,-13.7328,1
9.1441,-3.2111,-2.0554,23.1933,2.9907,-17.3949,1
9.1591,-3.0592,-1.9663,28.9305,3.5400,-20.6298,1
9.0221,-2.4568,-1.7336,30.3343,2.3193,-18.0663,1
9.0945,-2.1547,-1.5505,29.6630,-1.7700,-13.2445,1
9.0520,-2.0955,-1.6199,27.1605,-6.0424,-9.9487,1
9.0873,-2.1732,-1.6911,21.9115,-8.9111,-4.4555,1
9.0221,-2.1852,-1.7718,17.0897,-8.7280,0.6713,1
8.8869,-2.3712,-1.8915,13.4277,-8.6669,4.2724,1
8.9653,-2.5238,-2.0075,7.9345,-5.3100,9.0942,1
9.1782,-2.6303,-2.2049,4.5776,-2.3193,11.2304,1
9.1166,-3.0083,-2.6656,-7.3242,1.6479,12.9394,1
9.2147,-3.0251,-2.4741,-24.2308,3.4789,9.6435,1
9.0676,-2.9760,-2.0434,-26.4281,1.6479,2.5634,1
8.7864,-2.7720,-2.2277,-22.7050,0.9155,1.1596,1
8.7888,-3.0191,-2.1601,-18.9208,-1.5258,3.0517,1
9.1681,-2.9312,-1.8448,-10.3149,2.2582,5.8593,1
9.3750,-2.5034,-1.6241,-4.5165,1.4648,2.5634,1
9.5264,-2.3018,-1.6348,-2.7465,1.2207,0.0000,1
9.5383,-2.6793,-1.7042,-5.4931,4.8828,-2.0751,1
9.6275,-2.8552,-1.5092,-8.8500,6.5307,-3.2348,1
9.1746,-2.5274,-1.4817,-8.8500,6.0424,-4.5165,1
9.0239,-2.7134,-1.5457,-7.0190,4.7607,-3.0517,1
8.9790,-3.0227,-1.5810,-4.4555,5.9203,-2.5024,1
9.0670,-3.0753,-1.5846,0.4882,7.4462,-3.9062,1
8.8241,-3.0011,-1.5427,6.1034,9.5824,-2.9296,1
8.7601,-2.9653,-1.5134,11.8407,6.4697,3.2348,1
9.0604,-2.8193,-1.7910,5.6762,-2.9296,5.4931,1
9.4683,-2.6075,-2.1667,1.8310,0.7934,6.2866,1
9.0263,-2.6135,-1.9585,-6.6528,2.1972,6.6528,1
9.1040,-2.6470,-1.7982,-9.7656,0.3662,9.3993,1
9.3858,-3.1495,-2.0739,-11.3525,-2.9907,7.2631,1
9.1663,-3.1555,-2.1164,-10.8031,-2.7465,0.4882,1
8.9353,-2.8707,-1.9298,-9.8266,0.4882,0.6713,1
8.8450,-2.8737,-1.9232,-4.8828,-1.4648,1.0375,1
9.0717,-3.1968,-1.9962,-5.4321,-4.5776,2.6855,1
9.0807,-3.3505,-2.0937,-5.4321,-4.1503,1.5869,1
9.0173,-3.1806,-2.0709,-3.5400,-3.9672,0.5493,1
8.9808,-3.0508,-2.0943,-1.6479,-3.8452,1.4648,1
8.9359,-3.0801,-2.0853,-1.4648,-4.8217,1.3427,1
8.9976,-3.0574,-2.1278,-1.1596,-4.3334,0.4882,1
8.9324,-3.0035,-2.2073,-1.1596,-2.3803,0.7324,1
8.9700,-2.9904,-2.2223,-1.0986,-3.3569,0.1831,1
9.0137,-3.0388,-2.3174,0.1831,-2.8686,0.0000,1
8.9156,-3.1094,-2.1140,1.8920,0.4272,-1.2207,1
8.7696,-3.0269,-2.1361,2.3803,0.9155,0.1220,1
8.9772,-2.9557,-2.1726,4.2724,0.9765,2.4414,1
9.4743,-3.4043,-1.8885,6.2255,2.1362,0.3662,1
9.1154,-3.2033,-1.8179,5.6152,-1.3427,-3.2958,1
8.8378,-2.8965,-2.0494,4.5165,-4.6996,-3.4789,1
8.8564,-2.7170,-2.0524,3.1738,-4.7607,0.7934,1
8.9108,-2.8701,-2.1290,3.4789,-3.6010,1.8310,1
9.0053,-2.9479,-2.1571,2.1972,-1.9531,2.0751,1
8.9114,-2.9341,-2.1212,0.7324,-1.5258,3.6010,1
8.9605,-3.1639,-2.1966,-2.9296,-1.6479,4.6996,1
8.9958,-3.2249,-2.2193,-4.8828,0.3662,4.3945,1
8.9856,-3.2189,-2.2205,-5.0659,0.0610,3.9672,1
8.9222,-3.1932,-2.1367,-5.3100,-1.4038,3.2348,1
8.9078,-3.1507,-2.2360,-4.6996,-2.4414,3.4789,1
8.9485,-3.2279,-2.3108,-5.6152,-2.9907,4.0283,1
8.9180,-3.2650,-2.3724,-6.6528,-1.7700,3.5400,1
8.8911,-3.3714,-2.3611,-6.4697,0.6103,2.9907,1
8.9126,-3.3248,-2.3443,-5.4321,0.3051,2.3803,1
8.9940,-3.4175,-2.4586,-4.6996,0.4272,1.6479,1
8.8929,-3.5521,-2.5854,-5.0048,0.0610,0.3051,1
8.8474,-3.5790,-2.4592,-4.8828,-1.7700,-1.4648,1
8.6416,-3.7100,-2.5633,-2.2582,-2.6855,-2.6855,1
8.5926,-3.6939,-2.5962,1.8310,-2.1972,-3.9062,1
8.4676,-3.4043,-2.4909,4.8828,0.9765,-3.9062,1
8.7128,-3.2518,-2.4287,9.4604,0.7934,-1.9531,1
8.8432,-3.1621,-2.4203,12.1459,0.0610,0.7934,1
8.9611,-3.0837,-2.4532,12.6342,0.4882,0.7324,1
8.9754,-3.0574,-2.4059,11.9628,2.5024,0.8544,1
9.0412,-3.0538,-2.3862,10.6811,3.0517,-1.0986,1
9.0747,-3.0568,-2.2839,7.9955,2.7465,-1.7089,1
9.0729,-3.0987,-2.1732,5.5541,2.5024,-2.6245,1
8.9623,-3.0951,-2.1194,4.1503,2.5634,-3.1127,1
8.9569,-3.0065,-2.1367,2.1362,2.8076,-2.7465,1
8.9174,-2.9653,-2.0099,0.9765,3.3569,-2.3803,1
9.0209,-3.0029,-1.9639,0.3051,4.2724,-1.5869,1
8.9587,-3.0047,-1.9292,0.6713,4.0893,0.7324,1
8.9431,-2.9676,-2.0105,-1.3427,3.7231,0.4882,1
8.9629,-2.9970,-2.0075,-2.9907,3.9062,1.8920,1
9.0161,-3.0005,-2.0494,-3.7231,2.9907,2.1972,1
9.0335,-3.0233,-2.0739,-5.1269,3.2958,2.7465,1
9.0873,-3.0526,-2.0817,-5.8593,4.0893,2.8686,1
9.0873,-3.1196,-2.1499,-6.4086,3.2958,2.3193,1
9.0580,-3.0801,-2.1559,-7.8124,3.6010,1.5258,1
9.0681,-3.0705,-2.1463,-8.8500,2.6855,1.0986,1
9.0173,-3.0675,-2.2624,-9.2162,2.8686,1.1596,1
9.0628,-3.1172,-2.2606,-9.2773,2.5024,0.7934,1
8.9108,-3.2004,-2.2037,-9.3993,1.4648,0.5493,1
8.8366,-3.2757,-2.1972,-8.8500,0.1831,0.1220,1
8.7894,-3.2721,-2.2325,-7.2021,-2.3803,0.0000,1
8.8636,-3.2979,-2.1900,-5.6152,-2.7465,0.1220,1
8.9605,-3.2793,-2.1828,-2.3803,-3.2958,-1.5258,1
8.9868,-3.1238,-2.2695,-2.0141,-2.5024,-2.4414,1
9.1357,-2.9515,-2.0524,-3.4789,-1.8920,-2.6245,1
9.0879,-2.9138,-1.9663,-3.0517,-2.0141,-3.8452,1
8.9820,-2.9605,-1.9154,-2.9296,-1.5869,-3.7841,1
8.9940,-2.9988,-1.8903,-1.6479,0.4882,-3.5400,1
8.9641,-2.8677,-1.7982,0.9765,1.4038,-2.1972,1
8.9491,-2.7206,-1.7353,0.7934,1.8920,0.3051,1
8.9814,-2.7637,-1.7569,-2.0751,1.6479,1.4038,1
9.1992,-3.0017,-1.7012,-2.5634,1.3427,1.0375,1
9.1824,-3.0544,-1.6372,-3.0517,1.6479,0.5493,1
9.1573,-2.8929,-1.5714,-2.9907,0.7324,0.1220,1
9.1603,-2.8576,-1.5661,-2.9296,-1.1596,0.6103,1
9.2063,-2.8432,-1.5080,-2.5634,0.8544,0.1831,1
9.1501,-2.8695,-1.5176,-2.0751,0.6103,0.0610,1
9.1477,-2.7714,-1.5433,-1.8920,-1.0986,0.5493,1
9.1932,-2.7122,-1.5373,-1.7089,0.3662,1.0986,1
9.1926,-2.8462,-1.5583,-1.8920,0.2441,1.4648,1
9.1501,-2.8600,-1.5254,-2.0751,0.1220,1.9531,1
9.0957,-2.9001,-1.6199,-2.0141,0.1831,2.4414,1
9.1052,-2.8833,-1.6737,-2.2582,0.1831,3.7231,1
9.1794,-2.9377,-1.7383,-1.7089,0.7934,3.7231,1
9.1393,-3.1322,-1.7694,0.3662,1.4648,2.5634,1
9.0783,-3.1070,-1.7066,0.7934,0.3051,2.1972,1
8.9617,-3.0675,-1.8448,1.0986,0.1831,1.8920,1
8.9473,-2.9676,-1.9256,1.9531,-1.1596,1.2207,1
9.0299,-3.0281,-1.9573,3.3569,-1.2817,0.3662,1
9.0370,-3.0149,-2.0799,4.5165,0.9765,0.4882,1
8.9563,-3.0418,-2.1541,4.2724,0.6713,0.9155,1
8.9419,-3.0699,-2.2701,3.7231,0.2441,-1.0375,1
8.9120,-3.1058,-2.1978,2.8076,0.7324,-1.4648,1
8.8821,-3.2039,-2.2319,3.1738,0.3662,-1.5258,1
9.0221,-3.2344,-2.3132,3.0517,1.4038,-1.2817,1
8.9270,-3.1663,-2.3407,0.0000,1.9531,0.6713,1
8.8893,-2.9778,-2.4023,0.6713,0.8544,-1.0986,1
8.9300,-3.2004,-2.3874,0.1831,1.2817,0.7934,1
9.0197,-3.2338,-2.2187,1.2207,1.9531,0.2441,1
8.9575,-3.2321,-2.1768,2.8076,1.0986,0.9765,1
8.9192,-3.2859,-2.1684,3.7841,0.2441,-1.0375,1
8.9898,-3.5449,-2.0279,5.3100,0.1831,-2.2582,1
9.0622,-3.6687,-1.9537,6.2866,-2.4414,-3.9062,1
8.8749,-3.1669,-2.0691,5.6762,-4.6996,-5.3710,1
8.7367,-2.9569,-2.2689,5.6152,-4.4555,-4.7607,1
8.8121,-3.0125,-2.4275,4.9438,-4.2724,-3.4179,1
9.0000,-3.2608,-2.4460,5.3100,-3.3569,-3.5400,1
9.0562,-3.2817,-2.3808,4.1503,-2.3803,-5.1269,1
8.8815,-2.8803,-2.2923,1.4648,-3.0517,-4.6996,1
8.9736,-2.8953,-2.3024,0.4882,-3.6621,-3.1738,1
9.1124,-3.0275,-2.2636,0.3051,-3.8452,-3.2348,1
9.0652,-3.1268,-2.1870,0.3051,-3.4179,-4.6386,1
8.8887,-2.9012,-2.2319,0.7934,-4.8217,-5.0048,1
9.0490,-2.8630,-2.2725,0.5493,-4.1503,-5.0048,1
9.1411,-2.8779,-2.2193,0.3051,-4.0893,-5.9203,1
9.0681,-2.8917,-2.1074,0.7934,-2.8076,-7.1410,1
9.0317,-2.7649,-2.0081,1.7700,-2.6245,-7.0190,1
9.0317,-2.5208,-2.0392,2.8686,-3.7841,-5.6152,1
9.0741,-2.5112,-2.0051,3.4789,-3.2958,-3.9672,1
9.0658,-2.5304,-1.8873,3.7231,-2.4414,-2.7465,1
9.1148,-2.5274,-1.8699,4.5776,-2.1972,0.7324,1
9.1603,-2.4358,-1.9471,4.0283,-1.0375,0.6713,1
9.0999,-2.5567,-2.0668,4.3334,0.1831,2.5024,1
9.1543,-2.7714,-1.9585,5.4321,2.3193,1.2817,1
9.1507,-3.0993,-1.9525,8.4228,2.1972,0.3051,1
9.1782,-3.3930,-2.2301,11.2914,1.7700,-1.9531,1
9.1118,-3.1459,-2.3264,7.5683,0.3051,-4.2114,1
8.7780,-2.9401,-2.0111,5.7372,-3.9062,-5.5541,1
8.5788,-2.9371,-2.0811,9.5214,-7.3242,-4.2114,1
8.7553,-2.9970,-2.2504,12.6342,-7.0190,-2.5024,1
8.9294,-2.9078,-2.3108,16.1742,-2.7465,-1.0375,1
9.1232,-2.8121,-2.1834,16.2353,-1.6479,0.9765,1
9.0388,-2.7523,-2.1140,14.7704,-2.9907,-1.5869,1
9.0454,-2.7762,-2.1391,11.1694,-5.5541,0.8544,1
9.0496,-2.7320,-2.1720,9.1552,-5.0659,-1.2207,1
9.0825,-2.7200,-2.2570,6.2255,-4.4555,0.9765,1
9.0269,-2.6823,-2.2713,3.8452,-4.3945,0.0000,1
9.0143,-2.7152,-2.2965,0.1831,-3.6621,0.9765,1
8.9288,-2.7260,-2.3078,-2.9296,-2.5634,1.2817,1
8.8827,-2.8396,-2.4245,-4.2724,0.7934,1.1596,1
8.8701,-2.8833,-2.3778,-5.9814,1.4648,2.2582,1
9.0311,-2.9198,-2.3485,-6.4086,2.6245,2.5634,1
9.1088,-2.9635,-2.3150,-7.5073,4.2724,1.8310,1
9.0819,-2.9282,-2.1918,-8.4228,4.8828,0.9765,1
9.0442,-3.0119,-2.1314,-8.0566,4.0283,0.3051,1
9.0735,-3.0981,-2.1164,-7.0800,1.8310,0.0000,1
9.0179,-3.0897,-2.1667,-5.7983,0.7324,0.6103,1
8.9665,-3.1136,-2.2456,-3.4179,-1.2817,-1.0375,1
8.9383,-3.0987,-2.2971,0.7934,-3.5400,-1.4038,1
8.9042,-3.0849,-2.3670,0.4272,-2.7465,-1.5869,1
8.9246,-3.0077,-2.4376,0.5493,-1.5258,-2.1972,1
8.9060,-3.0005,-2.4675,0.5493,0.6713,-2.5024,1
8.9365,-2.9898,-2.4687,1.2207,1.2817,-1.8310,1
8.9868,-3.0095,-2.5328,0.6103,1.7089,-1.5869,1
8.9802,-3.0000,-2.5262,0.9155,1.2817,-1.4648,1
8.9736,-3.0592,-2.4975,-2.6855,0.4272,-1.0986,1
8.9844,-3.1579,-2.5722,-2.6855,0.6713,0.5493,1
8.9054,-3.1088,-2.6865,-5.3100,-1.3427,0.2441,1
8.8935,-3.0538,-2.5142,-6.5307,-2.5024,0.6713,1
8.7218,-3.1603,-2.4556,-4.2114,-3.7231,1.2817,1
8.7122,-3.1345,-2.3772,0.3051,-3.9062,2.6855,1
8.6979,-2.9988,-2.4287,2.0141,-3.2958,3.5400,1
8.8337,-2.9156,-2.3336,3.3569,-2.9907,4.5776,1
8.8839,-2.8139,-2.0997,6.2866,-1.0986,6.2866,1
8.9449,-2.8546,-1.9962,7.9345,0.9155,7.9955,1
9.0305,-3.1142,-2.9072,6.1034,-1.3427,10.3149,1
9.4977,-3.1651,-3.3254,-12.6342,-1.1596,7.0190,1
9.2069,-3.0161,-2.4125,-18.4936,1.7089,-1.8310,1
8.3754,-3.2757,-2.1296,-12.2680,0.2441,-1.1596,1
8.4173,-3.5563,-2.5142,-7.8124,-1.9531,2.9907,1
9.1459,-3.2721,-2.7104,-2.5024,3.3569,3.2958,1
9.2386,-3.1992,-2.3832,0.4272,7.7514,-1.5869,1
8.6309,-2.9437,-1.8789,2.0141,5.4321,0.6713,1
8.7128,-2.9294,-1.9621,5.4321,1.8920,2.5634,1
9.2033,-2.9222,-2.0392,5.9203,0.4272,2.3193,1
9.3116,-2.8546,-1.8221,6.1645,0.1220,0.3662,1
9.1956,-2.8217,-1.6839,9.1552,0.1220,-1.1596,1
8.8857,-2.7726,-1.9489,10.6200,0.1220,0.2441,1
8.8594,-2.9300,-2.6745,5.0048,-1.7089,2.7465,1
9.3140,-2.9509,-3.3475,-7.8735,0.9155,4.0283,1
9.2207,-3.1172,-2.3856,-21.7894,5.1269,-7.7514,1
8.1774,-3.2081,-1.9567,-12.0238,3.6010,-8.0566,1
8.2833,-3.6107,-2.1140,-3.6621,3.2348,0.9765,1
8.9814,-3.5090,-2.3712,6.6528,8.1176,2.4414,1
9.4223,-3.0352,-2.1774,8.4228,9.2773,-1.2817,1
8.7487,-2.6769,-1.8658,7.3852,4.2114,-2.9907,1
8.8175,-2.7248,-2.0859,4.2114,-1.7089,0.9765,1
9.1154,-2.8378,-2.2097,1.5869,-2.9907,0.9155,1
9.2853,-2.9437,-2.2666,0.1831,-2.0751,0.8544,1
9.1770,-3.1136,-2.2510,-1.3427,0.4882,-2.2582,1
8.9575,-2.9318,-2.1415,-2.6855,1.9531,-3.2958,1
8.8139,-2.8660,-2.2671,-2.9296,1.7700,-3.4789,1
8.9324,-2.8564,-2.2432,-2.6245,3.8452,-2.1362,1
8.9778,-2.8977,-2.2474,-2.3803,4.2724,0.7934,1
8.9904,-2.9234,-2.1361,-2.4414,4.2114,0.1831,1
9.0406,-2.9784,-2.0548,-3.2348,3.6010,0.2441,1
8.9994,-2.9874,-2.0033,-3.7841,3.2348,0.9765,1
9.0610,-2.8749,-2.0494,-3.6010,3.5400,0.3662,1
9.1214,-2.8600,-2.0344,-3.9062,4.5165,0.3051,1
9.0915,-2.8259,-2.0129,-4.8217,4.7607,0.3662,1
9.0101,-2.8169,-1.9423,-6.5917,3.6010,0.5493,1
9.0807,-2.8582,-1.9740,-7.6904,3.1127,0.2441,1
9.0687,-2.8372,-2.0793,-8.9111,3.9062,0.2441,1
9.0867,-2.8576,-2.0428,-10.0097,5.4321,0.2441,1
9.0514,-2.8983,-1.9848,-10.4980,5.9814,0.1220,1
8.9611,-2.9054,-1.9453,-10.6200,5.0659,0.3662,1
8.9784,-2.8606,-1.9316,-9.7656,4.5776,1.3427,1
9.0532,-2.8737,-1.9950,-8.7280,4.6996,1.9531,1
9.0640,-2.9318,-1.9830,-7.5683,4.3334,1.5258,1
9.0604,-3.0113,-1.9537,-6.3476,4.2114,1.2207,1
9.0741,-3.0023,-1.9902,-4.2114,3.4179,0.3051,1
9.0975,-2.9928,-1.9800,-1.8920,3.7231,0.4882,1
9.1112,-2.8881,-1.9567,0.6713,4.0283,0.9155,1
9.0861,-2.8504,-1.9561,0.7934,3.3569,-1.4038,1
9.0424,-2.8151,-1.9728,1.7700,2.5634,-1.2817,1
9.0909,-2.8390,-1.9531,3.8452,2.1972,0.8544,1
9.0849,-2.7810,-1.9423,5.1269,1.2817,0.8544,1
9.0460,-2.6626,-1.9286,5.1879,0.6103,0.3662,1
9.0496,-2.5956,-1.8777,5.1879,0.7934,0.5493,1
9.2249,-2.6003,-1.8101,5.1269,0.4272,1.0986,1
9.2566,-2.6590,-1.8203,4.3334,0.2441,0.5493,1
9.2021,-2.6398,-1.7880,1.5258,0.3051,0.3662,1
9.1836,-2.5800,-1.8245,0.1220,0.7324,0.4272,1
9.2494,-2.6315,-1.8167,-2.0141,2.3193,0.2441,1
9.2524,-2.6105,-1.7503,-4.8828,3.0517,0.7934,1
9.1082,-2.6919,-1.7868,-4.8828,2.7465,0.3051,1
9.1280,-2.7936,-1.7952,-5.9814,2.6855,0.3662,1
9.1848,-2.8151,-1.7826,-5.6762,2.7465,0.0610,1
9.1746,-2.8253,-1.7515,-4.2114,3.1127,0.1220,1
9.1328,-2.8402,-1.6414,-1.7089,2.4414,0.8544,1
9.1064,-2.8181,-1.6325,0.3051,1.7700,0.7934,1
9.1495,-2.8002,-1.6582,3.0517,0.2441,0.6713,1
9.2374,-2.7343,-1.6265,3.9672,0.0610,-1.2207,1
9.2285,-2.6350,-1.6390,4.6996,0.5493,-1.8310,1
9.1962,-2.6596,-1.6007,5.2490,-1.5258,-1.5258,1
9.1669,-2.6566,-1.5702,5.6762,-1.9531,-1.2207,1
9.1710,-2.6356,-1.5984,6.2866,-2.1972,0.6103,1
9.2015,-2.6386,-1.6127,6.3476,-2.5024,0.1220,1
9.1728,-2.6039,-1.6456,5.7983,-2.7465,0.9765,1
9.1692,-2.6237,-1.6803,4.4555,-2.8076,1.8920,1
9.2010,-2.6919,-1.8658,2.0751,-2.6245,2.5634,1
9.3104,-2.7780,-2.0404,-3.5400,-3.2958,2.1362,1
9.1752,-2.8205,-1.9447,-6.9579,-2.9296,0.6103,1
8.7661,-2.8420,-1.8011,-5.4931,-2.9296,0.2441,1
8.8325,-2.9820,-1.7976,0.5493,-1.6479,2.8686,1
9.1058,-2.9760,-1.7659,2.6245,0.2441,3.2958,1
9.1465,-2.8438,-1.7204,4.8217,1.2207,3.0517,1
9.1507,-2.6632,-1.6833,3.9062,1.5869,3.6621,1
9.2721,-2.7625,-1.6953,0.0610,0.0610,4.5165,1
9.3152,-2.8941,-1.7449,-4.5776,0.4882,3.7841,1
9.1011,-2.9629,-1.7880,-6.4697,-1.1596,3.1738,1
9.0508,-3.0346,-1.8861,-7.6293,-1.8310,3.4179,1
8.9964,-3.1322,-2.0243,-8.8500,-2.5634,2.6245,1
8.8378,-3.1585,-2.0763,-7.6904,-2.8076,2.1972,1
8.8043,-3.2255,-2.1212,-4.5776,-2.7465,3.2348,1
8.8869,-3.3487,-2.1948,-1.4038,-2.4414,3.6010,1
8.9018,-3.3445,-2.2163,2.9907,-1.2817,2.7465,1
8.8636,-3.2560,-2.0769,5.0048,-1.9531,2.6855,1
9.0622,-3.2500,-2.0464,8.1786,-2.2582,2.1972,1
9.1555,-3.2099,-1.9531,8.9721,-3.2958,0.4882,1
9.0735,-3.0053,-1.7982,7.4462,-5.0048,0.3662,1
8.9856,-2.9587,-1.8687,7.0800,-5.7983,0.7934,1
9.0562,-2.9048,-1.9896,5.4321,-5.0048,1.5258,1
9.0107,-2.8737,-2.1260,1.8310,-2.6245,2.0141,1
9.0047,-2.8444,-2.1128,-1.6479,0.1220,3.5400,1
9.0670,-2.9587,-2.0679,-3.2348,1.6479,4.5776,1
9.0418,-3.0544,-1.9663,-4.6996,1.1596,5.0048,1
8.9557,-3.1704,-1.9304,-4.4555,0.9155,4.4555,1
8.9682,-3.1758,-2.0105,-2.8076,0.3051,3.4789,1
8.9736,-3.1483,-2.0847,-2.1362,0.3051,2.9296,1
9.0430,-3.1465,-2.0434,-1.9531,0.1220,2.8686,1
9.0221,-3.1573,-2.0458,-1.2817,0.0000,2.0751,1
8.9533,-3.1633,-1.9992,-1.1596,0.7324,1.2817,1
8.9485,-3.2620,-2.0327,0.5493,-1.2207,0.6103,1
8.9533,-3.3284,-2.0021,0.3662,-1.9531,0.2441,1
8.8923,-3.3481,-1.9657,1.2207,-2.8686,0.1831,1
8.9138,-3.3086,-1.9902,2.1972,-2.8686,0.5493,1
8.9407,-3.3008,-2.0279,2.5024,-2.5024,0.4882,1
8.9228,-3.2937,-1.9848,2.4414,-1.6479,0.6103,1
8.8833,-3.2895,-1.9788,2.5024,-1.8920,0.3662,1
8.9084,-3.3367,-2.0386,2.9907,-1.5869,0.3051,1
8.8839,-3.3774,-2.0733,3.8452,-1.2207,0.1220,1
8.8761,-3.3768,-2.0093,3.9672,-1.5869,0.3051,1
8.9174,-3.3798,-2.0165,4.5165,-1.8310,0.4272,1
8.9084,-3.3996,-1.9980,4.9438,-2.3193,0.9155,1
8.8917,-3.4037,-2.0267,5.3100,-2.3193,-1.2817,1
8.9054,-3.3954,-2.0362,5.6152,-2.6245,-1.4648,1
8.9204,-3.3667,-2.0458,5.6762,-2.1972,-1.3427,1
8.9359,-3.3116,-2.0434,5.3100,-2.1362,-1.3427,1
8.8917,-3.3098,-1.9866,4.5776,-2.0751,-1.1596,1
8.9407,-3.3146,-2.0237,4.5776,-2.5634,0.9765,1
8.9198,-3.2979,-2.0440,3.7231,-2.4414,-1.0986,1
8.9204,-3.2997,-2.0566,3.0517,-2.1972,0.7934,1
8.9222,-3.3343,-2.0668,3.4789,-1.7089,-1.0986,1
8.9072,-3.3349,-2.0895,2.3193,0.6103,-1.7089,1
8.9072,-3.2542,-2.0183,0.9155,-1.0375,0.9155,1
8.9054,-3.2991,-2.0566,0.9765,-1.0986,0.6713,1
8.9222,-3.3152,-2.0410,0.3662,0.9155,0.5493,1
8.9054,-3.3170,-2.0985,0.2441,0.9155,0.6713,1
8.9060,-3.3074,-2.1493,0.3662,0.1220,0.6713,1
8.9162,-3.2991,-2.1182,0.6713,0.5493,0.4882,1
8.8911,-3.3146,-2.0979,0.9765,0.3662,0.3051,1
8.9395,-3.3260,-2.0727,0.9155,0.4882,0.0610,1
8.9270,-3.4253,-2.1158,0.3662,0.9155,0.4882,1
8.8701,-3.3990,-2.1631,0.3051,-1.5258,-1.2207,1
8.8564,-3.4235,-2.2181,0.9155,-1.2207,-1.4648,1
8.8570,-3.3870,-2.2259,2.1972,0.7324,-1.8920,1
8.8307,-3.3840,-2.2133,3.4789,0.8544,-2.0141,1
8.8205,-3.3888,-2.2295,4.0893,0.9155,-2.0141,1
8.8462,-3.3972,-2.2271,5.3100,-1.0986,-1.5869,1
8.8378,-3.3792,-2.1810,5.3100,-1.2207,-1.6479,1
8.8672,-3.3996,-2.1457,4.8828,-1.5869,-1.4648,1
8.8833,-3.4677,-2.1218,4.8828,-2.1972,-1.5869,1
8.8845,-3.5659,-2.1439,5.4931,-2.1362,-2.0751,1
8.8552,-3.5383,-2.1194,5.9814,-1.9531,-2.1362,1
8.8420,-3.4438,-2.1284,5.7372,-2.0751,-1.9531,1
8.8815,-3.3726,-2.0799,5.3100,-1.7700,-1.5258,1
8.8815,-3.3738,-2.1092,4.8828,-1.2817,-1.2207,1
8.8540,-3.3260,-2.0590,3.9062,-1.0986,-1.1596,1
